,rt,response,trial_type,trial_index,time_elapsed,internal_node_id,run_id,condition,recorded_at,source_code_version,ip,user_agent,device,browser,browser_version,platform,platform_version,referer,accept_language,subject,filename,task,correct,subtask,slider_start,accent,high_IC,accent_chosen,high_IC_chosen,question_order,Unnamed: 0,grammaticality,sequence
0,5486.0,7,audio-slider-response,78,1369852,0.0-19.0-0.0,20,tonic Cs5,2024-06-02 19:23:40,6002660e01f3b1b72159da84d3eceb55,174.82.68.72,"Mozilla/5.0 (Macintosh; Intel Mac OS X 10_15_7) AppleWebKit/537.36 (KHTML, like Gecko) Chrome/125.0.0.0 Safari/537.36",Macintosh,Chrome,125.0.0.0,OS X,10_15_7,https://app.prolific.com/,"en-US,en;q=0.9",dykydm,grammatical_5.mp3,grammar_learning,,,4.0,,,,,,,grammatical,
1,6078.0,6,audio-slider-response,79,1375929,0.0-19.0-0.1,20,tonic Cs5,2024-06-02 19:23:40,6002660e01f3b1b72159da84d3eceb55,174.82.68.72,"Mozilla/5.0 (Macintosh; Intel Mac OS X 10_15_7) AppleWebKit/537.36 (KHTML, like Gecko) Chrome/125.0.0.0 Safari/537.36",Macintosh,Chrome,125.0.0.0,OS X,10_15_7,https://app.prolific.com/,"en-US,en;q=0.9",dykydm,grammatical_2.mp3,grammar_learning,,,4.0,,,,,,,grammatical,
2,7041.0,5,audio-slider-response,80,1383046,0.0-19.0-0.2,20,tonic Cs5,2024-06-02 19:23:40,6002660e01f3b1b72159da84d3eceb55,174.82.68.72,"Mozilla/5.0 (Macintosh; Intel Mac OS X 10_15_7) AppleWebKit/537.36 (KHTML, like Gecko) Chrome/125.0.0.0 Safari/537.36",Macintosh,Chrome,125.0.0.0,OS X,10_15_7,https://app.prolific.com/,"en-US,en;q=0.9",dykydm,grammatical_4.mp3,grammar_learning,,,4.0,,,,,,,grammatical,
3,5799.0,6,audio-slider-response,81,1388921,0.0-19.0-0.3,20,tonic Cs5,2024-06-02 19:23:40,6002660e01f3b1b72159da84d3eceb55,174.82.68.72,"Mozilla/5.0 (Macintosh; Intel Mac OS X 10_15_7) AppleWebKit/537.36 (KHTML, like Gecko) Chrome/125.0.0.0 Safari/537.36",Macintosh,Chrome,125.0.0.0,OS X,10_15_7,https://app.prolific.com/,"en-US,en;q=0.9",dykydm,grammatical_7.mp3,grammar_learning,,,4.0,,,,,,,grammatical,
4,6821.0,7,audio-slider-response,82,1395819,0.0-19.0-0.4,20,tonic Cs5,2024-06-02 19:23:40,6002660e01f3b1b72159da84d3eceb55,174.82.68.72,"Mozilla/5.0 (Macintosh; Intel Mac OS X 10_15_7) AppleWebKit/537.36 (KHTML, like Gecko) Chrome/125.0.0.0 Safari/537.36",Macintosh,Chrome,125.0.0.0,OS X,10_15_7,https://app.prolific.com/,"en-US,en;q=0.9",dykydm,grammatical_6.mp3,grammar_learning,,,4.0,,,,,,,grammatical,
5,5648.0,3,audio-slider-response,83,1401543,0.0-19.0-0.5,20,tonic Cs5,2024-06-02 19:23:40,6002660e01f3b1b72159da84d3eceb55,174.82.68.72,"Mozilla/5.0 (Macintosh; Intel Mac OS X 10_15_7) AppleWebKit/537.36 (KHTML, like Gecko) Chrome/125.0.0.0 Safari/537.36",Macintosh,Chrome,125.0.0.0,OS X,10_15_7,https://app.prolific.com/,"en-US,en;q=0.9",dykydm,agrammatical_6.mp3,grammar_learning,,,4.0,,,,,,,agrammatical,
6,7117.0,3,audio-slider-response,84,1408751,0.0-19.0-0.6,20,tonic Cs5,2024-06-02 19:23:40,6002660e01f3b1b72159da84d3eceb55,174.82.68.72,"Mozilla/5.0 (Macintosh; Intel Mac OS X 10_15_7) AppleWebKit/537.36 (KHTML, like Gecko) Chrome/125.0.0.0 Safari/537.36",Macintosh,Chrome,125.0.0.0,OS X,10_15_7,https://app.prolific.com/,"en-US,en;q=0.9",dykydm,agrammatical_4.mp3,grammar_learning,,,4.0,,,,,,,agrammatical,
7,8789.0,7,audio-slider-response,85,1417603,0.0-19.0-0.7,20,tonic Cs5,2024-06-02 19:23:40,6002660e01f3b1b72159da84d3eceb55,174.82.68.72,"Mozilla/5.0 (Macintosh; Intel Mac OS X 10_15_7) AppleWebKit/537.36 (KHTML, like Gecko) Chrome/125.0.0.0 Safari/537.36",Macintosh,Chrome,125.0.0.0,OS X,10_15_7,https://app.prolific.com/,"en-US,en;q=0.9",dykydm,grammatical_8.mp3,grammar_learning,,,4.0,,,,,,,grammatical,
8,8110.0,2,audio-slider-response,86,1425782,0.0-19.0-0.8,20,tonic Cs5,2024-06-02 19:23:40,6002660e01f3b1b72159da84d3eceb55,174.82.68.72,"Mozilla/5.0 (Macintosh; Intel Mac OS X 10_15_7) AppleWebKit/537.36 (KHTML, like Gecko) Chrome/125.0.0.0 Safari/537.36",Macintosh,Chrome,125.0.0.0,OS X,10_15_7,https://app.prolific.com/,"en-US,en;q=0.9",dykydm,agrammatical_8.mp3,grammar_learning,,,4.0,,,,,,,agrammatical,
9,7378.0,2,audio-slider-response,87,1433302,0.0-19.0-0.9,20,tonic Cs5,2024-06-02 19:23:40,6002660e01f3b1b72159da84d3eceb55,174.82.68.72,"Mozilla/5.0 (Macintosh; Intel Mac OS X 10_15_7) AppleWebKit/537.36 (KHTML, like Gecko) Chrome/125.0.0.0 Safari/537.36",Macintosh,Chrome,125.0.0.0,OS X,10_15_7,https://app.prolific.com/,"en-US,en;q=0.9",dykydm,agrammatical_2.mp3,grammar_learning,,,4.0,,,,,,,agrammatical,
10,5805.0,3,audio-slider-response,88,1439112,0.0-19.0-0.10,20,tonic Cs5,2024-06-02 19:23:40,6002660e01f3b1b72159da84d3eceb55,174.82.68.72,"Mozilla/5.0 (Macintosh; Intel Mac OS X 10_15_7) AppleWebKit/537.36 (KHTML, like Gecko) Chrome/125.0.0.0 Safari/537.36",Macintosh,Chrome,125.0.0.0,OS X,10_15_7,https://app.prolific.com/,"en-US,en;q=0.9",dykydm,grammatical_1.mp3,grammar_learning,,,4.0,,,,,,,grammatical,
11,5730.0,3,audio-slider-response,89,1444942,0.0-19.0-0.11,20,tonic Cs5,2024-06-02 19:23:40,6002660e01f3b1b72159da84d3eceb55,174.82.68.72,"Mozilla/5.0 (Macintosh; Intel Mac OS X 10_15_7) AppleWebKit/537.36 (KHTML, like Gecko) Chrome/125.0.0.0 Safari/537.36",Macintosh,Chrome,125.0.0.0,OS X,10_15_7,https://app.prolific.com/,"en-US,en;q=0.9",dykydm,agrammatical_7.mp3,grammar_learning,,,4.0,,,,,,,agrammatical,
12,6577.0,2,audio-slider-response,90,1451611,0.0-19.0-0.12,20,tonic Cs5,2024-06-02 19:23:40,6002660e01f3b1b72159da84d3eceb55,174.82.68.72,"Mozilla/5.0 (Macintosh; Intel Mac OS X 10_15_7) AppleWebKit/537.36 (KHTML, like Gecko) Chrome/125.0.0.0 Safari/537.36",Macintosh,Chrome,125.0.0.0,OS X,10_15_7,https://app.prolific.com/,"en-US,en;q=0.9",dykydm,agrammatical_3.mp3,grammar_learning,,,4.0,,,,,,,agrammatical,
13,6850.0,2,audio-slider-response,91,1458535,0.0-19.0-0.13,20,tonic Cs5,2024-06-02 19:23:40,6002660e01f3b1b72159da84d3eceb55,174.82.68.72,"Mozilla/5.0 (Macintosh; Intel Mac OS X 10_15_7) AppleWebKit/537.36 (KHTML, like Gecko) Chrome/125.0.0.0 Safari/537.36",Macintosh,Chrome,125.0.0.0,OS X,10_15_7,https://app.prolific.com/,"en-US,en;q=0.9",dykydm,agrammatical_1.mp3,grammar_learning,,,4.0,,,,,,,agrammatical,
14,5851.0,2,audio-slider-response,92,1464467,0.0-19.0-0.14,20,tonic Cs5,2024-06-02 19:23:40,6002660e01f3b1b72159da84d3eceb55,174.82.68.72,"Mozilla/5.0 (Macintosh; Intel Mac OS X 10_15_7) AppleWebKit/537.36 (KHTML, like Gecko) Chrome/125.0.0.0 Safari/537.36",Macintosh,Chrome,125.0.0.0,OS X,10_15_7,https://app.prolific.com/,"en-US,en;q=0.9",dykydm,agrammatical_5.mp3,grammar_learning,,,4.0,,,,,,,agrammatical,
15,9410.0,3,audio-slider-response,93,1474019,0.0-19.0-0.15,20,tonic Cs5,2024-06-02 19:23:40,6002660e01f3b1b72159da84d3eceb55,174.82.68.72,"Mozilla/5.0 (Macintosh; Intel Mac OS X 10_15_7) AppleWebKit/537.36 (KHTML, like Gecko) Chrome/125.0.0.0 Safari/537.36",Macintosh,Chrome,125.0.0.0,OS X,10_15_7,https://app.prolific.com/,"en-US,en;q=0.9",dykydm,grammatical_3.mp3,grammar_learning,,,4.0,,,,,,,grammatical,
16,6691.0,7,audio-slider-response,78,1316252,0.0-19.0-0.0,10,tonic Cs5,2024-06-02 10:38:23,6002660e01f3b1b72159da84d3eceb55,86.28.107.21,"Mozilla/5.0 (Windows NT 10.0; Win64; x64) AppleWebKit/537.36 (KHTML, like Gecko) Chrome/125.0.0.0 Safari/537.36",WebKit,Chrome,125.0.0.0,Windows,10.0,https://app.prolific.com/,"en-GB,en-US;q=0.9,en;q=0.8",vxh5qr,grammatical_6.mp3,grammar_learning,,,4.0,,,,,,,grammatical,
17,6819.0,3,audio-slider-response,79,1323204,0.0-19.0-0.1,10,tonic Cs5,2024-06-02 10:38:23,6002660e01f3b1b72159da84d3eceb55,86.28.107.21,"Mozilla/5.0 (Windows NT 10.0; Win64; x64) AppleWebKit/537.36 (KHTML, like Gecko) Chrome/125.0.0.0 Safari/537.36",WebKit,Chrome,125.0.0.0,Windows,10.0,https://app.prolific.com/,"en-GB,en-US;q=0.9,en;q=0.8",vxh5qr,agrammatical_2.mp3,grammar_learning,,,4.0,,,,,,,agrammatical,
18,8901.0,6,audio-slider-response,80,1332106,0.0-19.0-0.2,10,tonic Cs5,2024-06-02 10:38:23,6002660e01f3b1b72159da84d3eceb55,86.28.107.21,"Mozilla/5.0 (Windows NT 10.0; Win64; x64) AppleWebKit/537.36 (KHTML, like Gecko) Chrome/125.0.0.0 Safari/537.36",WebKit,Chrome,125.0.0.0,Windows,10.0,https://app.prolific.com/,"en-GB,en-US;q=0.9,en;q=0.8",vxh5qr,grammatical_8.mp3,grammar_learning,,,4.0,,,,,,,grammatical,
19,7011.0,7,audio-slider-response,81,1339282,0.0-19.0-0.3,10,tonic Cs5,2024-06-02 10:38:23,6002660e01f3b1b72159da84d3eceb55,86.28.107.21,"Mozilla/5.0 (Windows NT 10.0; Win64; x64) AppleWebKit/537.36 (KHTML, like Gecko) Chrome/125.0.0.0 Safari/537.36",WebKit,Chrome,125.0.0.0,Windows,10.0,https://app.prolific.com/,"en-GB,en-US;q=0.9,en;q=0.8",vxh5qr,grammatical_4.mp3,grammar_learning,,,4.0,,,,,,,grammatical,
20,6499.0,3,audio-slider-response,82,1345931,0.0-19.0-0.4,10,tonic Cs5,2024-06-02 10:38:23,6002660e01f3b1b72159da84d3eceb55,86.28.107.21,"Mozilla/5.0 (Windows NT 10.0; Win64; x64) AppleWebKit/537.36 (KHTML, like Gecko) Chrome/125.0.0.0 Safari/537.36",WebKit,Chrome,125.0.0.0,Windows,10.0,https://app.prolific.com/,"en-GB,en-US;q=0.9,en;q=0.8",vxh5qr,agrammatical_6.mp3,grammar_learning,,,4.0,,,,,,,agrammatical,
21,6909.0,6,audio-slider-response,83,1352973,0.0-19.0-0.5,10,tonic Cs5,2024-06-02 10:38:23,6002660e01f3b1b72159da84d3eceb55,86.28.107.21,"Mozilla/5.0 (Windows NT 10.0; Win64; x64) AppleWebKit/537.36 (KHTML, like Gecko) Chrome/125.0.0.0 Safari/537.36",WebKit,Chrome,125.0.0.0,Windows,10.0,https://app.prolific.com/,"en-GB,en-US;q=0.9,en;q=0.8",vxh5qr,grammatical_5.mp3,grammar_learning,,,4.0,,,,,,,grammatical,
22,10741.0,3,audio-slider-response,84,1363863,0.0-19.0-0.6,10,tonic Cs5,2024-06-02 10:38:23,6002660e01f3b1b72159da84d3eceb55,86.28.107.21,"Mozilla/5.0 (Windows NT 10.0; Win64; x64) AppleWebKit/537.36 (KHTML, like Gecko) Chrome/125.0.0.0 Safari/537.36",WebKit,Chrome,125.0.0.0,Windows,10.0,https://app.prolific.com/,"en-GB,en-US;q=0.9,en;q=0.8",vxh5qr,agrammatical_5.mp3,grammar_learning,,,4.0,,,,,,,agrammatical,
23,7229.0,6,audio-slider-response,85,1371221,0.0-19.0-0.7,10,tonic Cs5,2024-06-02 10:38:23,6002660e01f3b1b72159da84d3eceb55,86.28.107.21,"Mozilla/5.0 (Windows NT 10.0; Win64; x64) AppleWebKit/537.36 (KHTML, like Gecko) Chrome/125.0.0.0 Safari/537.36",WebKit,Chrome,125.0.0.0,Windows,10.0,https://app.prolific.com/,"en-GB,en-US;q=0.9,en;q=0.8",vxh5qr,grammatical_7.mp3,grammar_learning,,,4.0,,,,,,,grammatical,
24,11059.0,7,audio-slider-response,86,1382449,0.0-19.0-0.8,10,tonic Cs5,2024-06-02 10:38:23,6002660e01f3b1b72159da84d3eceb55,86.28.107.21,"Mozilla/5.0 (Windows NT 10.0; Win64; x64) AppleWebKit/537.36 (KHTML, like Gecko) Chrome/125.0.0.0 Safari/537.36",WebKit,Chrome,125.0.0.0,Windows,10.0,https://app.prolific.com/,"en-GB,en-US;q=0.9,en;q=0.8",vxh5qr,grammatical_2.mp3,grammar_learning,,,4.0,,,,,,,grammatical,
25,9971.0,3,audio-slider-response,87,1392549,0.0-19.0-0.9,10,tonic Cs5,2024-06-02 10:38:23,6002660e01f3b1b72159da84d3eceb55,86.28.107.21,"Mozilla/5.0 (Windows NT 10.0; Win64; x64) AppleWebKit/537.36 (KHTML, like Gecko) Chrome/125.0.0.0 Safari/537.36",WebKit,Chrome,125.0.0.0,Windows,10.0,https://app.prolific.com/,"en-GB,en-US;q=0.9,en;q=0.8",vxh5qr,agrammatical_4.mp3,grammar_learning,,,4.0,,,,,,,agrammatical,
26,9341.0,6,audio-slider-response,88,1401898,0.0-19.0-0.10,10,tonic Cs5,2024-06-02 10:38:23,6002660e01f3b1b72159da84d3eceb55,86.28.107.21,"Mozilla/5.0 (Windows NT 10.0; Win64; x64) AppleWebKit/537.36 (KHTML, like Gecko) Chrome/125.0.0.0 Safari/537.36",WebKit,Chrome,125.0.0.0,Windows,10.0,https://app.prolific.com/,"en-GB,en-US;q=0.9,en;q=0.8",vxh5qr,grammatical_1.mp3,grammar_learning,,,4.0,,,,,,,grammatical,
27,11560.0,4,audio-slider-response,89,1413596,0.0-19.0-0.11,10,tonic Cs5,2024-06-02 10:38:23,6002660e01f3b1b72159da84d3eceb55,86.28.107.21,"Mozilla/5.0 (Windows NT 10.0; Win64; x64) AppleWebKit/537.36 (KHTML, like Gecko) Chrome/125.0.0.0 Safari/537.36",WebKit,Chrome,125.0.0.0,Windows,10.0,https://app.prolific.com/,"en-GB,en-US;q=0.9,en;q=0.8",vxh5qr,agrammatical_3.mp3,grammar_learning,,,4.0,,,,,,,agrammatical,
28,7512.0,5,audio-slider-response,90,1421112,0.0-19.0-0.12,10,tonic Cs5,2024-06-02 10:38:23,6002660e01f3b1b72159da84d3eceb55,86.28.107.21,"Mozilla/5.0 (Windows NT 10.0; Win64; x64) AppleWebKit/537.36 (KHTML, like Gecko) Chrome/125.0.0.0 Safari/537.36",WebKit,Chrome,125.0.0.0,Windows,10.0,https://app.prolific.com/,"en-GB,en-US;q=0.9,en;q=0.8",vxh5qr,grammatical_3.mp3,grammar_learning,,,4.0,,,,,,,grammatical,
29,6712.0,3,audio-slider-response,91,1427952,0.0-19.0-0.13,10,tonic Cs5,2024-06-02 10:38:23,6002660e01f3b1b72159da84d3eceb55,86.28.107.21,"Mozilla/5.0 (Windows NT 10.0; Win64; x64) AppleWebKit/537.36 (KHTML, like Gecko) Chrome/125.0.0.0 Safari/537.36",WebKit,Chrome,125.0.0.0,Windows,10.0,https://app.prolific.com/,"en-GB,en-US;q=0.9,en;q=0.8",vxh5qr,agrammatical_8.mp3,grammar_learning,,,4.0,,,,,,,agrammatical,
30,7851.0,3,audio-slider-response,92,1435947,0.0-19.0-0.14,10,tonic Cs5,2024-06-02 10:38:23,6002660e01f3b1b72159da84d3eceb55,86.28.107.21,"Mozilla/5.0 (Windows NT 10.0; Win64; x64) AppleWebKit/537.36 (KHTML, like Gecko) Chrome/125.0.0.0 Safari/537.36",WebKit,Chrome,125.0.0.0,Windows,10.0,https://app.prolific.com/,"en-GB,en-US;q=0.9,en;q=0.8",vxh5qr,agrammatical_1.mp3,grammar_learning,,,4.0,,,,,,,agrammatical,
31,6779.0,3,audio-slider-response,93,1442889,0.0-19.0-0.15,10,tonic Cs5,2024-06-02 10:38:23,6002660e01f3b1b72159da84d3eceb55,86.28.107.21,"Mozilla/5.0 (Windows NT 10.0; Win64; x64) AppleWebKit/537.36 (KHTML, like Gecko) Chrome/125.0.0.0 Safari/537.36",WebKit,Chrome,125.0.0.0,Windows,10.0,https://app.prolific.com/,"en-GB,en-US;q=0.9,en;q=0.8",vxh5qr,agrammatical_7.mp3,grammar_learning,,,4.0,,,,,,,agrammatical,
32,18480.0,6,audio-slider-response,79,1648312,0.0-19.0-0.0,11,tonic Cs5,2024-06-02 10:41:31,6002660e01f3b1b72159da84d3eceb55,81.151.147.243,"Mozilla/5.0 (Windows NT 10.0; Win64; x64) AppleWebKit/537.36 (KHTML, like Gecko) Chrome/124.0.0.0 Safari/537.36 Edg/124.0.0.0",WebKit,Edge,124.0.0.0,Windows,10.0,https://app.prolific.com/,"en-US,en;q=0.9,en-GB;q=0.8",jkxofs,grammatical_5.mp3,grammar_learning,,,4.0,,,,,,,grammatical,
33,8091.0,2,audio-slider-response,80,1656472,0.0-19.0-0.1,11,tonic Cs5,2024-06-02 10:41:31,6002660e01f3b1b72159da84d3eceb55,81.151.147.243,"Mozilla/5.0 (Windows NT 10.0; Win64; x64) AppleWebKit/537.36 (KHTML, like Gecko) Chrome/124.0.0.0 Safari/537.36 Edg/124.0.0.0",WebKit,Edge,124.0.0.0,Windows,10.0,https://app.prolific.com/,"en-US,en;q=0.9,en-GB;q=0.8",jkxofs,agrammatical_2.mp3,grammar_learning,,,4.0,,,,,,,agrammatical,
34,11128.0,3,audio-slider-response,81,1667689,0.0-19.0-0.2,11,tonic Cs5,2024-06-02 10:41:31,6002660e01f3b1b72159da84d3eceb55,81.151.147.243,"Mozilla/5.0 (Windows NT 10.0; Win64; x64) AppleWebKit/537.36 (KHTML, like Gecko) Chrome/124.0.0.0 Safari/537.36 Edg/124.0.0.0",WebKit,Edge,124.0.0.0,Windows,10.0,https://app.prolific.com/,"en-US,en;q=0.9,en-GB;q=0.8",jkxofs,agrammatical_5.mp3,grammar_learning,,,4.0,,,,,,,agrammatical,
35,3731.0,4,audio-slider-response,82,1671418,0.0-19.0-0.3,11,tonic Cs5,2024-06-02 10:41:31,6002660e01f3b1b72159da84d3eceb55,81.151.147.243,"Mozilla/5.0 (Windows NT 10.0; Win64; x64) AppleWebKit/537.36 (KHTML, like Gecko) Chrome/124.0.0.0 Safari/537.36 Edg/124.0.0.0",WebKit,Edge,124.0.0.0,Windows,10.0,https://app.prolific.com/,"en-US,en;q=0.9,en-GB;q=0.8",jkxofs,grammatical_1.mp3,grammar_learning,,,4.0,,,,,,,grammatical,
36,8019.0,5,audio-slider-response,83,1679539,0.0-19.0-0.4,11,tonic Cs5,2024-06-02 10:41:31,6002660e01f3b1b72159da84d3eceb55,81.151.147.243,"Mozilla/5.0 (Windows NT 10.0; Win64; x64) AppleWebKit/537.36 (KHTML, like Gecko) Chrome/124.0.0.0 Safari/537.36 Edg/124.0.0.0",WebKit,Edge,124.0.0.0,Windows,10.0,https://app.prolific.com/,"en-US,en;q=0.9,en-GB;q=0.8",jkxofs,agrammatical_3.mp3,grammar_learning,,,4.0,,,,,,,agrammatical,
37,6360.0,2,audio-slider-response,84,1685973,0.0-19.0-0.5,11,tonic Cs5,2024-06-02 10:41:31,6002660e01f3b1b72159da84d3eceb55,81.151.147.243,"Mozilla/5.0 (Windows NT 10.0; Win64; x64) AppleWebKit/537.36 (KHTML, like Gecko) Chrome/124.0.0.0 Safari/537.36 Edg/124.0.0.0",WebKit,Edge,124.0.0.0,Windows,10.0,https://app.prolific.com/,"en-US,en;q=0.9,en-GB;q=0.8",jkxofs,grammatical_3.mp3,grammar_learning,,,4.0,,,,,,,grammatical,
38,12229.0,3,audio-slider-response,85,1698303,0.0-19.0-0.6,11,tonic Cs5,2024-06-02 10:41:31,6002660e01f3b1b72159da84d3eceb55,81.151.147.243,"Mozilla/5.0 (Windows NT 10.0; Win64; x64) AppleWebKit/537.36 (KHTML, like Gecko) Chrome/124.0.0.0 Safari/537.36 Edg/124.0.0.0",WebKit,Edge,124.0.0.0,Windows,10.0,https://app.prolific.com/,"en-US,en;q=0.9,en-GB;q=0.8",jkxofs,agrammatical_1.mp3,grammar_learning,,,4.0,,,,,,,agrammatical,
39,7360.0,7,audio-slider-response,86,1705734,0.0-19.0-0.7,11,tonic Cs5,2024-06-02 10:41:31,6002660e01f3b1b72159da84d3eceb55,81.151.147.243,"Mozilla/5.0 (Windows NT 10.0; Win64; x64) AppleWebKit/537.36 (KHTML, like Gecko) Chrome/124.0.0.0 Safari/537.36 Edg/124.0.0.0",WebKit,Edge,124.0.0.0,Windows,10.0,https://app.prolific.com/,"en-US,en;q=0.9,en-GB;q=0.8",jkxofs,grammatical_4.mp3,grammar_learning,,,4.0,,,,,,,grammatical,
40,8651.0,3,audio-slider-response,87,1714461,0.0-19.0-0.8,11,tonic Cs5,2024-06-02 10:41:31,6002660e01f3b1b72159da84d3eceb55,81.151.147.243,"Mozilla/5.0 (Windows NT 10.0; Win64; x64) AppleWebKit/537.36 (KHTML, like Gecko) Chrome/124.0.0.0 Safari/537.36 Edg/124.0.0.0",WebKit,Edge,124.0.0.0,Windows,10.0,https://app.prolific.com/,"en-US,en;q=0.9,en-GB;q=0.8",jkxofs,agrammatical_7.mp3,grammar_learning,,,4.0,,,,,,,agrammatical,
41,9371.0,5,audio-slider-response,88,1723906,0.0-19.0-0.9,11,tonic Cs5,2024-06-02 10:41:31,6002660e01f3b1b72159da84d3eceb55,81.151.147.243,"Mozilla/5.0 (Windows NT 10.0; Win64; x64) AppleWebKit/537.36 (KHTML, like Gecko) Chrome/124.0.0.0 Safari/537.36 Edg/124.0.0.0",WebKit,Edge,124.0.0.0,Windows,10.0,https://app.prolific.com/,"en-US,en;q=0.9,en-GB;q=0.8",jkxofs,grammatical_7.mp3,grammar_learning,,,4.0,,,,,,,grammatical,
42,15720.0,1,audio-slider-response,89,1739703,0.0-19.0-0.10,11,tonic Cs5,2024-06-02 10:41:31,6002660e01f3b1b72159da84d3eceb55,81.151.147.243,"Mozilla/5.0 (Windows NT 10.0; Win64; x64) AppleWebKit/537.36 (KHTML, like Gecko) Chrome/124.0.0.0 Safari/537.36 Edg/124.0.0.0",WebKit,Edge,124.0.0.0,Windows,10.0,https://app.prolific.com/,"en-US,en;q=0.9,en-GB;q=0.8",jkxofs,agrammatical_6.mp3,grammar_learning,,,4.0,,,,,,,agrammatical,
43,9120.0,5,audio-slider-response,90,1748825,0.0-19.0-0.11,11,tonic Cs5,2024-06-02 10:41:31,6002660e01f3b1b72159da84d3eceb55,81.151.147.243,"Mozilla/5.0 (Windows NT 10.0; Win64; x64) AppleWebKit/537.36 (KHTML, like Gecko) Chrome/124.0.0.0 Safari/537.36 Edg/124.0.0.0",WebKit,Edge,124.0.0.0,Windows,10.0,https://app.prolific.com/,"en-US,en;q=0.9,en-GB;q=0.8",jkxofs,grammatical_8.mp3,grammar_learning,,,4.0,,,,,,,grammatical,
44,7619.0,5,audio-slider-response,91,1756522,0.0-19.0-0.12,11,tonic Cs5,2024-06-02 10:41:31,6002660e01f3b1b72159da84d3eceb55,81.151.147.243,"Mozilla/5.0 (Windows NT 10.0; Win64; x64) AppleWebKit/537.36 (KHTML, like Gecko) Chrome/124.0.0.0 Safari/537.36 Edg/124.0.0.0",WebKit,Edge,124.0.0.0,Windows,10.0,https://app.prolific.com/,"en-US,en;q=0.9,en-GB;q=0.8",jkxofs,grammatical_6.mp3,grammar_learning,,,4.0,,,,,,,grammatical,
45,7160.0,2,audio-slider-response,92,1763755,0.0-19.0-0.13,11,tonic Cs5,2024-06-02 10:41:31,6002660e01f3b1b72159da84d3eceb55,81.151.147.243,"Mozilla/5.0 (Windows NT 10.0; Win64; x64) AppleWebKit/537.36 (KHTML, like Gecko) Chrome/124.0.0.0 Safari/537.36 Edg/124.0.0.0",WebKit,Edge,124.0.0.0,Windows,10.0,https://app.prolific.com/,"en-US,en;q=0.9,en-GB;q=0.8",jkxofs,agrammatical_4.mp3,grammar_learning,,,4.0,,,,,,,agrammatical,
46,7080.0,2,audio-slider-response,93,1770904,0.0-19.0-0.14,11,tonic Cs5,2024-06-02 10:41:31,6002660e01f3b1b72159da84d3eceb55,81.151.147.243,"Mozilla/5.0 (Windows NT 10.0; Win64; x64) AppleWebKit/537.36 (KHTML, like Gecko) Chrome/124.0.0.0 Safari/537.36 Edg/124.0.0.0",WebKit,Edge,124.0.0.0,Windows,10.0,https://app.prolific.com/,"en-US,en;q=0.9,en-GB;q=0.8",jkxofs,agrammatical_8.mp3,grammar_learning,,,4.0,,,,,,,agrammatical,
47,6760.0,5,audio-slider-response,94,1777748,0.0-19.0-0.15,11,tonic Cs5,2024-06-02 10:41:31,6002660e01f3b1b72159da84d3eceb55,81.151.147.243,"Mozilla/5.0 (Windows NT 10.0; Win64; x64) AppleWebKit/537.36 (KHTML, like Gecko) Chrome/124.0.0.0 Safari/537.36 Edg/124.0.0.0",WebKit,Edge,124.0.0.0,Windows,10.0,https://app.prolific.com/,"en-US,en;q=0.9,en-GB;q=0.8",jkxofs,grammatical_2.mp3,grammar_learning,,,4.0,,,,,,,grammatical,
48,5764.0,3,audio-slider-response,79,1288544,0.0-19.0-0.0,16,tonic Cs5,2024-06-02 19:22:46,6002660e01f3b1b72159da84d3eceb55,80.5.9.78,"Mozilla/5.0 (Macintosh; Intel Mac OS X 10_15_7) AppleWebKit/537.36 (KHTML, like Gecko) Chrome/125.0.0.0 Safari/537.36",Macintosh,Chrome,125.0.0.0,OS X,10_15_7,https://app.prolific.com/,"en-GB,en-US;q=0.9,en;q=0.8",8ybm77,grammatical_2.mp3,grammar_learning,,,4.0,,,,,,,grammatical,
49,4609.0,3,audio-slider-response,80,1293224,0.0-19.0-0.1,16,tonic Cs5,2024-06-02 19:22:46,6002660e01f3b1b72159da84d3eceb55,80.5.9.78,"Mozilla/5.0 (Macintosh; Intel Mac OS X 10_15_7) AppleWebKit/537.36 (KHTML, like Gecko) Chrome/125.0.0.0 Safari/537.36",Macintosh,Chrome,125.0.0.0,OS X,10_15_7,https://app.prolific.com/,"en-GB,en-US;q=0.9,en;q=0.8",8ybm77,agrammatical_5.mp3,grammar_learning,,,4.0,,,,,,,agrammatical,
50,5828.0,5,audio-slider-response,81,1299152,0.0-19.0-0.2,16,tonic Cs5,2024-06-02 19:22:46,6002660e01f3b1b72159da84d3eceb55,80.5.9.78,"Mozilla/5.0 (Macintosh; Intel Mac OS X 10_15_7) AppleWebKit/537.36 (KHTML, like Gecko) Chrome/125.0.0.0 Safari/537.36",Macintosh,Chrome,125.0.0.0,OS X,10_15_7,https://app.prolific.com/,"en-GB,en-US;q=0.9,en;q=0.8",8ybm77,agrammatical_4.mp3,grammar_learning,,,4.0,,,,,,,agrammatical,
51,5683.0,7,audio-slider-response,82,1305047,0.0-19.0-0.3,16,tonic Cs5,2024-06-02 19:22:46,6002660e01f3b1b72159da84d3eceb55,80.5.9.78,"Mozilla/5.0 (Macintosh; Intel Mac OS X 10_15_7) AppleWebKit/537.36 (KHTML, like Gecko) Chrome/125.0.0.0 Safari/537.36",Macintosh,Chrome,125.0.0.0,OS X,10_15_7,https://app.prolific.com/,"en-GB,en-US;q=0.9,en;q=0.8",8ybm77,grammatical_6.mp3,grammar_learning,,,4.0,,,,,,,grammatical,
52,6693.0,3,audio-slider-response,83,1311820,0.0-19.0-0.4,16,tonic Cs5,2024-06-02 19:22:46,6002660e01f3b1b72159da84d3eceb55,80.5.9.78,"Mozilla/5.0 (Macintosh; Intel Mac OS X 10_15_7) AppleWebKit/537.36 (KHTML, like Gecko) Chrome/125.0.0.0 Safari/537.36",Macintosh,Chrome,125.0.0.0,OS X,10_15_7,https://app.prolific.com/,"en-GB,en-US;q=0.9,en;q=0.8",8ybm77,agrammatical_2.mp3,grammar_learning,,,4.0,,,,,,,agrammatical,
53,6467.0,6,audio-slider-response,84,1318480,0.0-19.0-0.5,16,tonic Cs5,2024-06-02 19:22:46,6002660e01f3b1b72159da84d3eceb55,80.5.9.78,"Mozilla/5.0 (Macintosh; Intel Mac OS X 10_15_7) AppleWebKit/537.36 (KHTML, like Gecko) Chrome/125.0.0.0 Safari/537.36",Macintosh,Chrome,125.0.0.0,OS X,10_15_7,https://app.prolific.com/,"en-GB,en-US;q=0.9,en;q=0.8",8ybm77,grammatical_8.mp3,grammar_learning,,,4.0,,,,,,,grammatical,
54,6467.0,2,audio-slider-response,85,1325590,0.0-19.0-0.6,16,tonic Cs5,2024-06-02 19:22:46,6002660e01f3b1b72159da84d3eceb55,80.5.9.78,"Mozilla/5.0 (Macintosh; Intel Mac OS X 10_15_7) AppleWebKit/537.36 (KHTML, like Gecko) Chrome/125.0.0.0 Safari/537.36",Macintosh,Chrome,125.0.0.0,OS X,10_15_7,https://app.prolific.com/,"en-GB,en-US;q=0.9,en;q=0.8",8ybm77,grammatical_7.mp3,grammar_learning,,,4.0,,,,,,,grammatical,
55,4447.0,6,audio-slider-response,86,1330034,0.0-19.0-0.7,16,tonic Cs5,2024-06-02 19:22:46,6002660e01f3b1b72159da84d3eceb55,80.5.9.78,"Mozilla/5.0 (Macintosh; Intel Mac OS X 10_15_7) AppleWebKit/537.36 (KHTML, like Gecko) Chrome/125.0.0.0 Safari/537.36",Macintosh,Chrome,125.0.0.0,OS X,10_15_7,https://app.prolific.com/,"en-GB,en-US;q=0.9,en;q=0.8",8ybm77,grammatical_3.mp3,grammar_learning,,,4.0,,,,,,,grammatical,
56,6792.0,5,audio-slider-response,87,1336828,0.0-19.0-0.8,16,tonic Cs5,2024-06-02 19:22:46,6002660e01f3b1b72159da84d3eceb55,80.5.9.78,"Mozilla/5.0 (Macintosh; Intel Mac OS X 10_15_7) AppleWebKit/537.36 (KHTML, like Gecko) Chrome/125.0.0.0 Safari/537.36",Macintosh,Chrome,125.0.0.0,OS X,10_15_7,https://app.prolific.com/,"en-GB,en-US;q=0.9,en;q=0.8",8ybm77,grammatical_4.mp3,grammar_learning,,,4.0,,,,,,,grammatical,
57,4841.0,2,audio-slider-response,88,1342262,0.0-19.0-0.9,16,tonic Cs5,2024-06-02 19:22:46,6002660e01f3b1b72159da84d3eceb55,80.5.9.78,"Mozilla/5.0 (Macintosh; Intel Mac OS X 10_15_7) AppleWebKit/537.36 (KHTML, like Gecko) Chrome/125.0.0.0 Safari/537.36",Macintosh,Chrome,125.0.0.0,OS X,10_15_7,https://app.prolific.com/,"en-GB,en-US;q=0.9,en;q=0.8",8ybm77,agrammatical_7.mp3,grammar_learning,,,4.0,,,,,,,agrammatical,
58,5166.0,1,audio-slider-response,89,1348045,0.0-19.0-0.10,16,tonic Cs5,2024-06-02 19:22:46,6002660e01f3b1b72159da84d3eceb55,80.5.9.78,"Mozilla/5.0 (Macintosh; Intel Mac OS X 10_15_7) AppleWebKit/537.36 (KHTML, like Gecko) Chrome/125.0.0.0 Safari/537.36",Macintosh,Chrome,125.0.0.0,OS X,10_15_7,https://app.prolific.com/,"en-GB,en-US;q=0.9,en;q=0.8",8ybm77,agrammatical_1.mp3,grammar_learning,,,4.0,,,,,,,agrammatical,
59,3570.0,1,audio-slider-response,90,1352061,0.0-19.0-0.11,16,tonic Cs5,2024-06-02 19:22:46,6002660e01f3b1b72159da84d3eceb55,80.5.9.78,"Mozilla/5.0 (Macintosh; Intel Mac OS X 10_15_7) AppleWebKit/537.36 (KHTML, like Gecko) Chrome/125.0.0.0 Safari/537.36",Macintosh,Chrome,125.0.0.0,OS X,10_15_7,https://app.prolific.com/,"en-GB,en-US;q=0.9,en;q=0.8",8ybm77,agrammatical_6.mp3,grammar_learning,,,4.0,,,,,,,agrammatical,
60,7517.0,2,audio-slider-response,91,1360026,0.0-19.0-0.12,16,tonic Cs5,2024-06-02 19:22:46,6002660e01f3b1b72159da84d3eceb55,80.5.9.78,"Mozilla/5.0 (Macintosh; Intel Mac OS X 10_15_7) AppleWebKit/537.36 (KHTML, like Gecko) Chrome/125.0.0.0 Safari/537.36",Macintosh,Chrome,125.0.0.0,OS X,10_15_7,https://app.prolific.com/,"en-GB,en-US;q=0.9,en;q=0.8",8ybm77,grammatical_5.mp3,grammar_learning,,,4.0,,,,,,,grammatical,
61,5695.0,1,audio-slider-response,92,1366090,0.0-19.0-0.13,16,tonic Cs5,2024-06-02 19:22:46,6002660e01f3b1b72159da84d3eceb55,80.5.9.78,"Mozilla/5.0 (Macintosh; Intel Mac OS X 10_15_7) AppleWebKit/537.36 (KHTML, like Gecko) Chrome/125.0.0.0 Safari/537.36",Macintosh,Chrome,125.0.0.0,OS X,10_15_7,https://app.prolific.com/,"en-GB,en-US;q=0.9,en;q=0.8",8ybm77,agrammatical_8.mp3,grammar_learning,,,4.0,,,,,,,agrammatical,
62,5108.0,2,audio-slider-response,93,1371197,0.0-19.0-0.14,16,tonic Cs5,2024-06-02 19:22:46,6002660e01f3b1b72159da84d3eceb55,80.5.9.78,"Mozilla/5.0 (Macintosh; Intel Mac OS X 10_15_7) AppleWebKit/537.36 (KHTML, like Gecko) Chrome/125.0.0.0 Safari/537.36",Macintosh,Chrome,125.0.0.0,OS X,10_15_7,https://app.prolific.com/,"en-GB,en-US;q=0.9,en;q=0.8",8ybm77,grammatical_1.mp3,grammar_learning,,,4.0,,,,,,,grammatical,
63,5747.0,1,audio-slider-response,94,1377272,0.0-19.0-0.15,16,tonic Cs5,2024-06-02 19:22:46,6002660e01f3b1b72159da84d3eceb55,80.5.9.78,"Mozilla/5.0 (Macintosh; Intel Mac OS X 10_15_7) AppleWebKit/537.36 (KHTML, like Gecko) Chrome/125.0.0.0 Safari/537.36",Macintosh,Chrome,125.0.0.0,OS X,10_15_7,https://app.prolific.com/,"en-GB,en-US;q=0.9,en;q=0.8",8ybm77,agrammatical_3.mp3,grammar_learning,,,4.0,,,,,,,agrammatical,
64,4099.0,7,audio-slider-response,78,1428273,0.0-19.0-0.0,12,tonic Cs5,2024-06-02 10:46:03,6002660e01f3b1b72159da84d3eceb55,92.40.176.102,"Mozilla/5.0 (Windows NT 10.0; Win64; x64) AppleWebKit/537.36 (KHTML, like Gecko) Chrome/125.0.0.0 Safari/537.36",WebKit,Chrome,125.0.0.0,Windows,10.0,https://app.prolific.com/,"en-GB,en-US;q=0.9,en;q=0.8,de;q=0.7",s6puyw,grammatical_7.mp3,grammar_learning,,,4.0,,,,,,,grammatical,
65,7080.0,7,audio-slider-response,79,1435758,0.0-19.0-0.1,12,tonic Cs5,2024-06-02 10:46:03,6002660e01f3b1b72159da84d3eceb55,92.40.176.102,"Mozilla/5.0 (Windows NT 10.0; Win64; x64) AppleWebKit/537.36 (KHTML, like Gecko) Chrome/125.0.0.0 Safari/537.36",WebKit,Chrome,125.0.0.0,Windows,10.0,https://app.prolific.com/,"en-GB,en-US;q=0.9,en;q=0.8,de;q=0.7",s6puyw,grammatical_4.mp3,grammar_learning,,,4.0,,,,,,,grammatical,
66,18741.0,7,audio-slider-response,80,1454874,0.0-19.0-0.2,12,tonic Cs5,2024-06-02 10:46:03,6002660e01f3b1b72159da84d3eceb55,92.40.176.102,"Mozilla/5.0 (Windows NT 10.0; Win64; x64) AppleWebKit/537.36 (KHTML, like Gecko) Chrome/125.0.0.0 Safari/537.36",WebKit,Chrome,125.0.0.0,Windows,10.0,https://app.prolific.com/,"en-GB,en-US;q=0.9,en;q=0.8,de;q=0.7",s6puyw,grammatical_3.mp3,grammar_learning,,,4.0,,,,,,,grammatical,
67,29549.0,5,audio-slider-response,81,1484847,0.0-19.0-0.3,12,tonic Cs5,2024-06-02 10:46:03,6002660e01f3b1b72159da84d3eceb55,92.40.176.102,"Mozilla/5.0 (Windows NT 10.0; Win64; x64) AppleWebKit/537.36 (KHTML, like Gecko) Chrome/125.0.0.0 Safari/537.36",WebKit,Chrome,125.0.0.0,Windows,10.0,https://app.prolific.com/,"en-GB,en-US;q=0.9,en;q=0.8,de;q=0.7",s6puyw,grammatical_6.mp3,grammar_learning,,,4.0,,,,,,,grammatical,
68,9360.0,7,audio-slider-response,82,1495067,0.0-19.0-0.4,12,tonic Cs5,2024-06-02 10:46:03,6002660e01f3b1b72159da84d3eceb55,92.40.176.102,"Mozilla/5.0 (Windows NT 10.0; Win64; x64) AppleWebKit/537.36 (KHTML, like Gecko) Chrome/125.0.0.0 Safari/537.36",WebKit,Chrome,125.0.0.0,Windows,10.0,https://app.prolific.com/,"en-GB,en-US;q=0.9,en;q=0.8,de;q=0.7",s6puyw,agrammatical_3.mp3,grammar_learning,,,4.0,,,,,,,agrammatical,
69,6429.0,7,audio-slider-response,83,1502089,0.0-19.0-0.5,12,tonic Cs5,2024-06-02 10:46:03,6002660e01f3b1b72159da84d3eceb55,92.40.176.102,"Mozilla/5.0 (Windows NT 10.0; Win64; x64) AppleWebKit/537.36 (KHTML, like Gecko) Chrome/125.0.0.0 Safari/537.36",WebKit,Chrome,125.0.0.0,Windows,10.0,https://app.prolific.com/,"en-GB,en-US;q=0.9,en;q=0.8,de;q=0.7",s6puyw,grammatical_2.mp3,grammar_learning,,,4.0,,,,,,,grammatical,
70,17981.0,6,audio-slider-response,84,1520559,0.0-19.0-0.6,12,tonic Cs5,2024-06-02 10:46:03,6002660e01f3b1b72159da84d3eceb55,92.40.176.102,"Mozilla/5.0 (Windows NT 10.0; Win64; x64) AppleWebKit/537.36 (KHTML, like Gecko) Chrome/125.0.0.0 Safari/537.36",WebKit,Chrome,125.0.0.0,Windows,10.0,https://app.prolific.com/,"en-GB,en-US;q=0.9,en;q=0.8,de;q=0.7",s6puyw,agrammatical_4.mp3,grammar_learning,,,4.0,,,,,,,agrammatical,
71,8661.0,7,audio-slider-response,85,1529754,0.0-19.0-0.7,12,tonic Cs5,2024-06-02 10:46:03,6002660e01f3b1b72159da84d3eceb55,92.40.176.102,"Mozilla/5.0 (Windows NT 10.0; Win64; x64) AppleWebKit/537.36 (KHTML, like Gecko) Chrome/125.0.0.0 Safari/537.36",WebKit,Chrome,125.0.0.0,Windows,10.0,https://app.prolific.com/,"en-GB,en-US;q=0.9,en;q=0.8,de;q=0.7",s6puyw,grammatical_8.mp3,grammar_learning,,,4.0,,,,,,,grammatical,
72,5760.0,7,audio-slider-response,86,1535943,0.0-19.0-0.8,12,tonic Cs5,2024-06-02 10:46:03,6002660e01f3b1b72159da84d3eceb55,92.40.176.102,"Mozilla/5.0 (Windows NT 10.0; Win64; x64) AppleWebKit/537.36 (KHTML, like Gecko) Chrome/125.0.0.0 Safari/537.36",WebKit,Chrome,125.0.0.0,Windows,10.0,https://app.prolific.com/,"en-GB,en-US;q=0.9,en;q=0.8,de;q=0.7",s6puyw,agrammatical_1.mp3,grammar_learning,,,4.0,,,,,,,agrammatical,
73,55221.0,7,audio-slider-response,87,1599295,0.0-19.0-0.9,12,tonic Cs5,2024-06-02 10:46:03,6002660e01f3b1b72159da84d3eceb55,92.40.176.102,"Mozilla/5.0 (Windows NT 10.0; Win64; x64) AppleWebKit/537.36 (KHTML, like Gecko) Chrome/125.0.0.0 Safari/537.36",WebKit,Chrome,125.0.0.0,Windows,10.0,https://app.prolific.com/,"en-GB,en-US;q=0.9,en;q=0.8,de;q=0.7",s6puyw,agrammatical_7.mp3,grammar_learning,,,4.0,,,,,,,agrammatical,
74,6000.0,7,audio-slider-response,88,1606909,0.0-19.0-0.10,12,tonic Cs5,2024-06-02 10:46:03,6002660e01f3b1b72159da84d3eceb55,92.40.176.102,"Mozilla/5.0 (Windows NT 10.0; Win64; x64) AppleWebKit/537.36 (KHTML, like Gecko) Chrome/125.0.0.0 Safari/537.36",WebKit,Chrome,125.0.0.0,Windows,10.0,https://app.prolific.com/,"en-GB,en-US;q=0.9,en;q=0.8,de;q=0.7",s6puyw,agrammatical_5.mp3,grammar_learning,,,4.0,,,,,,,agrammatical,
75,5309.0,7,audio-slider-response,89,1612459,0.0-19.0-0.11,12,tonic Cs5,2024-06-02 10:46:03,6002660e01f3b1b72159da84d3eceb55,92.40.176.102,"Mozilla/5.0 (Windows NT 10.0; Win64; x64) AppleWebKit/537.36 (KHTML, like Gecko) Chrome/125.0.0.0 Safari/537.36",WebKit,Chrome,125.0.0.0,Windows,10.0,https://app.prolific.com/,"en-GB,en-US;q=0.9,en;q=0.8,de;q=0.7",s6puyw,agrammatical_8.mp3,grammar_learning,,,4.0,,,,,,,agrammatical,
76,5949.0,7,audio-slider-response,90,1618414,0.0-19.0-0.12,12,tonic Cs5,2024-06-02 10:46:03,6002660e01f3b1b72159da84d3eceb55,92.40.176.102,"Mozilla/5.0 (Windows NT 10.0; Win64; x64) AppleWebKit/537.36 (KHTML, like Gecko) Chrome/125.0.0.0 Safari/537.36",WebKit,Chrome,125.0.0.0,Windows,10.0,https://app.prolific.com/,"en-GB,en-US;q=0.9,en;q=0.8,de;q=0.7",s6puyw,grammatical_1.mp3,grammar_learning,,,4.0,,,,,,,grammatical,
77,4851.0,7,audio-slider-response,91,1623453,0.0-19.0-0.13,12,tonic Cs5,2024-06-02 10:46:03,6002660e01f3b1b72159da84d3eceb55,92.40.176.102,"Mozilla/5.0 (Windows NT 10.0; Win64; x64) AppleWebKit/537.36 (KHTML, like Gecko) Chrome/125.0.0.0 Safari/537.36",WebKit,Chrome,125.0.0.0,Windows,10.0,https://app.prolific.com/,"en-GB,en-US;q=0.9,en;q=0.8,de;q=0.7",s6puyw,grammatical_5.mp3,grammar_learning,,,4.0,,,,,,,grammatical,
78,4931.0,7,audio-slider-response,92,1629188,0.0-19.0-0.14,12,tonic Cs5,2024-06-02 10:46:03,6002660e01f3b1b72159da84d3eceb55,92.40.176.102,"Mozilla/5.0 (Windows NT 10.0; Win64; x64) AppleWebKit/537.36 (KHTML, like Gecko) Chrome/125.0.0.0 Safari/537.36",WebKit,Chrome,125.0.0.0,Windows,10.0,https://app.prolific.com/,"en-GB,en-US;q=0.9,en;q=0.8,de;q=0.7",s6puyw,agrammatical_2.mp3,grammar_learning,,,4.0,,,,,,,agrammatical,
79,4539.0,6,audio-slider-response,93,1634377,0.0-19.0-0.15,12,tonic Cs5,2024-06-02 10:46:03,6002660e01f3b1b72159da84d3eceb55,92.40.176.102,"Mozilla/5.0 (Windows NT 10.0; Win64; x64) AppleWebKit/537.36 (KHTML, like Gecko) Chrome/125.0.0.0 Safari/537.36",WebKit,Chrome,125.0.0.0,Windows,10.0,https://app.prolific.com/,"en-GB,en-US;q=0.9,en;q=0.8,de;q=0.7",s6puyw,agrammatical_6.mp3,grammar_learning,,,4.0,,,,,,,agrammatical,
80,5744.0,7,audio-slider-response,78,1437973,0.0-19.0-0.0,21,tonic Cs5,2024-06-02 19:24:33,6002660e01f3b1b72159da84d3eceb55,86.155.171.28,"Mozilla/5.0 (Macintosh; Intel Mac OS X 10_15_7) AppleWebKit/537.36 (KHTML, like Gecko) Chrome/125.0.0.0 Safari/537.36",Macintosh,Chrome,125.0.0.0,OS X,10_15_7,https://app.prolific.com/,"en-GB,en-US;q=0.9,en;q=0.8",yh59cq,grammatical_6.mp3,grammar_learning,,,4.0,,,,,,,grammatical,
81,7259.0,7,audio-slider-response,79,1445322,0.0-19.0-0.1,21,tonic Cs5,2024-06-02 19:24:33,6002660e01f3b1b72159da84d3eceb55,86.155.171.28,"Mozilla/5.0 (Macintosh; Intel Mac OS X 10_15_7) AppleWebKit/537.36 (KHTML, like Gecko) Chrome/125.0.0.0 Safari/537.36",Macintosh,Chrome,125.0.0.0,OS X,10_15_7,https://app.prolific.com/,"en-GB,en-US;q=0.9,en;q=0.8",yh59cq,agrammatical_3.mp3,grammar_learning,,,4.0,,,,,,,agrammatical,
82,5829.0,7,audio-slider-response,80,1451339,0.0-19.0-0.2,21,tonic Cs5,2024-06-02 19:24:33,6002660e01f3b1b72159da84d3eceb55,86.155.171.28,"Mozilla/5.0 (Macintosh; Intel Mac OS X 10_15_7) AppleWebKit/537.36 (KHTML, like Gecko) Chrome/125.0.0.0 Safari/537.36",Macintosh,Chrome,125.0.0.0,OS X,10_15_7,https://app.prolific.com/,"en-GB,en-US;q=0.9,en;q=0.8",yh59cq,grammatical_5.mp3,grammar_learning,,,4.0,,,,,,,grammatical,
83,6165.0,6,audio-slider-response,81,1457508,0.0-19.0-0.3,21,tonic Cs5,2024-06-02 19:24:33,6002660e01f3b1b72159da84d3eceb55,86.155.171.28,"Mozilla/5.0 (Macintosh; Intel Mac OS X 10_15_7) AppleWebKit/537.36 (KHTML, like Gecko) Chrome/125.0.0.0 Safari/537.36",Macintosh,Chrome,125.0.0.0,OS X,10_15_7,https://app.prolific.com/,"en-GB,en-US;q=0.9,en;q=0.8",yh59cq,grammatical_1.mp3,grammar_learning,,,4.0,,,,,,,grammatical,
84,5605.0,3,audio-slider-response,82,1463206,0.0-19.0-0.4,21,tonic Cs5,2024-06-02 19:24:33,6002660e01f3b1b72159da84d3eceb55,86.155.171.28,"Mozilla/5.0 (Macintosh; Intel Mac OS X 10_15_7) AppleWebKit/537.36 (KHTML, like Gecko) Chrome/125.0.0.0 Safari/537.36",Macintosh,Chrome,125.0.0.0,OS X,10_15_7,https://app.prolific.com/,"en-GB,en-US;q=0.9,en;q=0.8",yh59cq,agrammatical_1.mp3,grammar_learning,,,4.0,,,,,,,agrammatical,
85,5083.0,3,audio-slider-response,83,1468389,0.0-19.0-0.5,21,tonic Cs5,2024-06-02 19:24:33,6002660e01f3b1b72159da84d3eceb55,86.155.171.28,"Mozilla/5.0 (Macintosh; Intel Mac OS X 10_15_7) AppleWebKit/537.36 (KHTML, like Gecko) Chrome/125.0.0.0 Safari/537.36",Macintosh,Chrome,125.0.0.0,OS X,10_15_7,https://app.prolific.com/,"en-GB,en-US;q=0.9,en;q=0.8",yh59cq,agrammatical_5.mp3,grammar_learning,,,4.0,,,,,,,agrammatical,
86,5360.0,2,audio-slider-response,84,1473843,0.0-19.0-0.6,21,tonic Cs5,2024-06-02 19:24:33,6002660e01f3b1b72159da84d3eceb55,86.155.171.28,"Mozilla/5.0 (Macintosh; Intel Mac OS X 10_15_7) AppleWebKit/537.36 (KHTML, like Gecko) Chrome/125.0.0.0 Safari/537.36",Macintosh,Chrome,125.0.0.0,OS X,10_15_7,https://app.prolific.com/,"en-GB,en-US;q=0.9,en;q=0.8",yh59cq,grammatical_7.mp3,grammar_learning,,,4.0,,,,,,,grammatical,
87,5099.0,3,audio-slider-response,85,1479122,0.0-19.0-0.7,21,tonic Cs5,2024-06-02 19:24:33,6002660e01f3b1b72159da84d3eceb55,86.155.171.28,"Mozilla/5.0 (Macintosh; Intel Mac OS X 10_15_7) AppleWebKit/537.36 (KHTML, like Gecko) Chrome/125.0.0.0 Safari/537.36",Macintosh,Chrome,125.0.0.0,OS X,10_15_7,https://app.prolific.com/,"en-GB,en-US;q=0.9,en;q=0.8",yh59cq,agrammatical_2.mp3,grammar_learning,,,4.0,,,,,,,agrammatical,
88,4976.0,7,audio-slider-response,86,1484239,0.0-19.0-0.8,21,tonic Cs5,2024-06-02 19:24:33,6002660e01f3b1b72159da84d3eceb55,86.155.171.28,"Mozilla/5.0 (Macintosh; Intel Mac OS X 10_15_7) AppleWebKit/537.36 (KHTML, like Gecko) Chrome/125.0.0.0 Safari/537.36",Macintosh,Chrome,125.0.0.0,OS X,10_15_7,https://app.prolific.com/,"en-GB,en-US;q=0.9,en;q=0.8",yh59cq,grammatical_8.mp3,grammar_learning,,,4.0,,,,,,,grammatical,
89,8245.0,7,audio-slider-response,87,1492590,0.0-19.0-0.9,21,tonic Cs5,2024-06-02 19:24:33,6002660e01f3b1b72159da84d3eceb55,86.155.171.28,"Mozilla/5.0 (Macintosh; Intel Mac OS X 10_15_7) AppleWebKit/537.36 (KHTML, like Gecko) Chrome/125.0.0.0 Safari/537.36",Macintosh,Chrome,125.0.0.0,OS X,10_15_7,https://app.prolific.com/,"en-GB,en-US;q=0.9,en;q=0.8",yh59cq,grammatical_2.mp3,grammar_learning,,,4.0,,,,,,,grammatical,
90,5637.0,2,audio-slider-response,88,1498324,0.0-19.0-0.10,21,tonic Cs5,2024-06-02 19:24:33,6002660e01f3b1b72159da84d3eceb55,86.155.171.28,"Mozilla/5.0 (Macintosh; Intel Mac OS X 10_15_7) AppleWebKit/537.36 (KHTML, like Gecko) Chrome/125.0.0.0 Safari/537.36",Macintosh,Chrome,125.0.0.0,OS X,10_15_7,https://app.prolific.com/,"en-GB,en-US;q=0.9,en;q=0.8",yh59cq,agrammatical_8.mp3,grammar_learning,,,4.0,,,,,,,agrammatical,
91,7429.0,6,audio-slider-response,89,1505845,0.0-19.0-0.11,21,tonic Cs5,2024-06-02 19:24:33,6002660e01f3b1b72159da84d3eceb55,86.155.171.28,"Mozilla/5.0 (Macintosh; Intel Mac OS X 10_15_7) AppleWebKit/537.36 (KHTML, like Gecko) Chrome/125.0.0.0 Safari/537.36",Macintosh,Chrome,125.0.0.0,OS X,10_15_7,https://app.prolific.com/,"en-GB,en-US;q=0.9,en;q=0.8",yh59cq,grammatical_4.mp3,grammar_learning,,,4.0,,,,,,,grammatical,
92,4704.0,5,audio-slider-response,90,1510645,0.0-19.0-0.12,21,tonic Cs5,2024-06-02 19:24:33,6002660e01f3b1b72159da84d3eceb55,86.155.171.28,"Mozilla/5.0 (Macintosh; Intel Mac OS X 10_15_7) AppleWebKit/537.36 (KHTML, like Gecko) Chrome/125.0.0.0 Safari/537.36",Macintosh,Chrome,125.0.0.0,OS X,10_15_7,https://app.prolific.com/,"en-GB,en-US;q=0.9,en;q=0.8",yh59cq,agrammatical_7.mp3,grammar_learning,,,4.0,,,,,,,agrammatical,
93,5851.0,5,audio-slider-response,91,1516706,0.0-19.0-0.13,21,tonic Cs5,2024-06-02 19:24:33,6002660e01f3b1b72159da84d3eceb55,86.155.171.28,"Mozilla/5.0 (Macintosh; Intel Mac OS X 10_15_7) AppleWebKit/537.36 (KHTML, like Gecko) Chrome/125.0.0.0 Safari/537.36",Macintosh,Chrome,125.0.0.0,OS X,10_15_7,https://app.prolific.com/,"en-GB,en-US;q=0.9,en;q=0.8",yh59cq,agrammatical_4.mp3,grammar_learning,,,4.0,,,,,,,agrammatical,
94,4965.0,3,audio-slider-response,92,1521760,0.0-19.0-0.14,21,tonic Cs5,2024-06-02 19:24:33,6002660e01f3b1b72159da84d3eceb55,86.155.171.28,"Mozilla/5.0 (Macintosh; Intel Mac OS X 10_15_7) AppleWebKit/537.36 (KHTML, like Gecko) Chrome/125.0.0.0 Safari/537.36",Macintosh,Chrome,125.0.0.0,OS X,10_15_7,https://app.prolific.com/,"en-GB,en-US;q=0.9,en;q=0.8",yh59cq,agrammatical_6.mp3,grammar_learning,,,4.0,,,,,,,agrammatical,
95,6528.0,3,audio-slider-response,93,1528290,0.0-19.0-0.15,21,tonic Cs5,2024-06-02 19:24:33,6002660e01f3b1b72159da84d3eceb55,86.155.171.28,"Mozilla/5.0 (Macintosh; Intel Mac OS X 10_15_7) AppleWebKit/537.36 (KHTML, like Gecko) Chrome/125.0.0.0 Safari/537.36",Macintosh,Chrome,125.0.0.0,OS X,10_15_7,https://app.prolific.com/,"en-GB,en-US;q=0.9,en;q=0.8",yh59cq,grammatical_3.mp3,grammar_learning,,,4.0,,,,,,,grammatical,
96,7120.0,7,audio-slider-response,78,1388102,0.0-19.0-0.0,22,tonic Cs5,2024-06-02 19:24:43,6002660e01f3b1b72159da84d3eceb55,109.155.201.26,"Mozilla/5.0 (Windows NT 10.0; Win64; x64) AppleWebKit/537.36 (KHTML, like Gecko) Chrome/125.0.0.0 Safari/537.36",WebKit,Chrome,125.0.0.0,Windows,10.0,https://app.prolific.com/,"en-GB,en-US;q=0.9,en;q=0.8",rz4nxs,grammatical_2.mp3,grammar_learning,,,4.0,,,,,,,grammatical,
97,6760.0,6,audio-slider-response,79,1394927,0.0-19.0-0.1,22,tonic Cs5,2024-06-02 19:24:43,6002660e01f3b1b72159da84d3eceb55,109.155.201.26,"Mozilla/5.0 (Windows NT 10.0; Win64; x64) AppleWebKit/537.36 (KHTML, like Gecko) Chrome/125.0.0.0 Safari/537.36",WebKit,Chrome,125.0.0.0,Windows,10.0,https://app.prolific.com/,"en-GB,en-US;q=0.9,en;q=0.8",rz4nxs,grammatical_8.mp3,grammar_learning,,,4.0,,,,,,,grammatical,
98,6019.0,2,audio-slider-response,80,1401007,0.0-19.0-0.2,22,tonic Cs5,2024-06-02 19:24:43,6002660e01f3b1b72159da84d3eceb55,109.155.201.26,"Mozilla/5.0 (Windows NT 10.0; Win64; x64) AppleWebKit/537.36 (KHTML, like Gecko) Chrome/125.0.0.0 Safari/537.36",WebKit,Chrome,125.0.0.0,Windows,10.0,https://app.prolific.com/,"en-GB,en-US;q=0.9,en;q=0.8",rz4nxs,agrammatical_4.mp3,grammar_learning,,,4.0,,,,,,,agrammatical,
99,6461.0,5,audio-slider-response,81,1407550,0.0-19.0-0.3,22,tonic Cs5,2024-06-02 19:24:43,6002660e01f3b1b72159da84d3eceb55,109.155.201.26,"Mozilla/5.0 (Windows NT 10.0; Win64; x64) AppleWebKit/537.36 (KHTML, like Gecko) Chrome/125.0.0.0 Safari/537.36",WebKit,Chrome,125.0.0.0,Windows,10.0,https://app.prolific.com/,"en-GB,en-US;q=0.9,en;q=0.8",rz4nxs,agrammatical_2.mp3,grammar_learning,,,4.0,,,,,,,agrammatical,
100,5829.0,7,audio-slider-response,82,1413439,0.0-19.0-0.4,22,tonic Cs5,2024-06-02 19:24:43,6002660e01f3b1b72159da84d3eceb55,109.155.201.26,"Mozilla/5.0 (Windows NT 10.0; Win64; x64) AppleWebKit/537.36 (KHTML, like Gecko) Chrome/125.0.0.0 Safari/537.36",WebKit,Chrome,125.0.0.0,Windows,10.0,https://app.prolific.com/,"en-GB,en-US;q=0.9,en;q=0.8",rz4nxs,agrammatical_7.mp3,grammar_learning,,,4.0,,,,,,,agrammatical,
101,5509.0,7,audio-slider-response,83,1419007,0.0-19.0-0.5,22,tonic Cs5,2024-06-02 19:24:43,6002660e01f3b1b72159da84d3eceb55,109.155.201.26,"Mozilla/5.0 (Windows NT 10.0; Win64; x64) AppleWebKit/537.36 (KHTML, like Gecko) Chrome/125.0.0.0 Safari/537.36",WebKit,Chrome,125.0.0.0,Windows,10.0,https://app.prolific.com/,"en-GB,en-US;q=0.9,en;q=0.8",rz4nxs,grammatical_6.mp3,grammar_learning,,,4.0,,,,,,,grammatical,
102,6109.0,1,audio-slider-response,84,1425175,0.0-19.0-0.6,22,tonic Cs5,2024-06-02 19:24:43,6002660e01f3b1b72159da84d3eceb55,109.155.201.26,"Mozilla/5.0 (Windows NT 10.0; Win64; x64) AppleWebKit/537.36 (KHTML, like Gecko) Chrome/125.0.0.0 Safari/537.36",WebKit,Chrome,125.0.0.0,Windows,10.0,https://app.prolific.com/,"en-GB,en-US;q=0.9,en;q=0.8",rz4nxs,agrammatical_8.mp3,grammar_learning,,,4.0,,,,,,,agrammatical,
103,5811.0,5,audio-slider-response,85,1431047,0.0-19.0-0.7,22,tonic Cs5,2024-06-02 19:24:43,6002660e01f3b1b72159da84d3eceb55,109.155.201.26,"Mozilla/5.0 (Windows NT 10.0; Win64; x64) AppleWebKit/537.36 (KHTML, like Gecko) Chrome/125.0.0.0 Safari/537.36",WebKit,Chrome,125.0.0.0,Windows,10.0,https://app.prolific.com/,"en-GB,en-US;q=0.9,en;q=0.8",rz4nxs,grammatical_4.mp3,grammar_learning,,,4.0,,,,,,,grammatical,
104,6168.0,1,audio-slider-response,86,1437279,0.0-19.0-0.8,22,tonic Cs5,2024-06-02 19:24:43,6002660e01f3b1b72159da84d3eceb55,109.155.201.26,"Mozilla/5.0 (Windows NT 10.0; Win64; x64) AppleWebKit/537.36 (KHTML, like Gecko) Chrome/125.0.0.0 Safari/537.36",WebKit,Chrome,125.0.0.0,Windows,10.0,https://app.prolific.com/,"en-GB,en-US;q=0.9,en;q=0.8",rz4nxs,grammatical_3.mp3,grammar_learning,,,4.0,,,,,,,grammatical,
105,5571.0,5,audio-slider-response,87,1442911,0.0-19.0-0.9,22,tonic Cs5,2024-06-02 19:24:43,6002660e01f3b1b72159da84d3eceb55,109.155.201.26,"Mozilla/5.0 (Windows NT 10.0; Win64; x64) AppleWebKit/537.36 (KHTML, like Gecko) Chrome/125.0.0.0 Safari/537.36",WebKit,Chrome,125.0.0.0,Windows,10.0,https://app.prolific.com/,"en-GB,en-US;q=0.9,en;q=0.8",rz4nxs,agrammatical_5.mp3,grammar_learning,,,4.0,,,,,,,agrammatical,
106,5749.0,2,audio-slider-response,88,1448727,0.0-19.0-0.10,22,tonic Cs5,2024-06-02 19:24:43,6002660e01f3b1b72159da84d3eceb55,109.155.201.26,"Mozilla/5.0 (Windows NT 10.0; Win64; x64) AppleWebKit/537.36 (KHTML, like Gecko) Chrome/125.0.0.0 Safari/537.36",WebKit,Chrome,125.0.0.0,Windows,10.0,https://app.prolific.com/,"en-GB,en-US;q=0.9,en;q=0.8",rz4nxs,agrammatical_1.mp3,grammar_learning,,,4.0,,,,,,,agrammatical,
107,5408.0,5,audio-slider-response,89,1454191,0.0-19.0-0.11,22,tonic Cs5,2024-06-02 19:24:43,6002660e01f3b1b72159da84d3eceb55,109.155.201.26,"Mozilla/5.0 (Windows NT 10.0; Win64; x64) AppleWebKit/537.36 (KHTML, like Gecko) Chrome/125.0.0.0 Safari/537.36",WebKit,Chrome,125.0.0.0,Windows,10.0,https://app.prolific.com/,"en-GB,en-US;q=0.9,en;q=0.8",rz4nxs,grammatical_7.mp3,grammar_learning,,,4.0,,,,,,,grammatical,
108,6352.0,6,audio-slider-response,90,1460550,0.0-19.0-0.12,22,tonic Cs5,2024-06-02 19:24:43,6002660e01f3b1b72159da84d3eceb55,109.155.201.26,"Mozilla/5.0 (Windows NT 10.0; Win64; x64) AppleWebKit/537.36 (KHTML, like Gecko) Chrome/125.0.0.0 Safari/537.36",WebKit,Chrome,125.0.0.0,Windows,10.0,https://app.prolific.com/,"en-GB,en-US;q=0.9,en;q=0.8",rz4nxs,grammatical_1.mp3,grammar_learning,,,4.0,,,,,,,grammatical,
109,6019.0,2,audio-slider-response,91,1466639,0.0-19.0-0.13,22,tonic Cs5,2024-06-02 19:24:43,6002660e01f3b1b72159da84d3eceb55,109.155.201.26,"Mozilla/5.0 (Windows NT 10.0; Win64; x64) AppleWebKit/537.36 (KHTML, like Gecko) Chrome/125.0.0.0 Safari/537.36",WebKit,Chrome,125.0.0.0,Windows,10.0,https://app.prolific.com/,"en-GB,en-US;q=0.9,en;q=0.8",rz4nxs,agrammatical_3.mp3,grammar_learning,,,4.0,,,,,,,agrammatical,
110,5400.0,2,audio-slider-response,92,1472095,0.0-19.0-0.14,22,tonic Cs5,2024-06-02 19:24:43,6002660e01f3b1b72159da84d3eceb55,109.155.201.26,"Mozilla/5.0 (Windows NT 10.0; Win64; x64) AppleWebKit/537.36 (KHTML, like Gecko) Chrome/125.0.0.0 Safari/537.36",WebKit,Chrome,125.0.0.0,Windows,10.0,https://app.prolific.com/,"en-GB,en-US;q=0.9,en;q=0.8",rz4nxs,grammatical_5.mp3,grammar_learning,,,4.0,,,,,,,grammatical,
111,6581.0,3,audio-slider-response,93,1478735,0.0-19.0-0.15,22,tonic Cs5,2024-06-02 19:24:43,6002660e01f3b1b72159da84d3eceb55,109.155.201.26,"Mozilla/5.0 (Windows NT 10.0; Win64; x64) AppleWebKit/537.36 (KHTML, like Gecko) Chrome/125.0.0.0 Safari/537.36",WebKit,Chrome,125.0.0.0,Windows,10.0,https://app.prolific.com/,"en-GB,en-US;q=0.9,en;q=0.8",rz4nxs,agrammatical_6.mp3,grammar_learning,,,4.0,,,,,,,agrammatical,
112,8341.0,7,audio-slider-response,80,1376322,0.0-19.0-0.0,24,tonic Cs5,2024-06-02 19:28:38,6002660e01f3b1b72159da84d3eceb55,68.201.1.10,"Mozilla/5.0 (X11; CrOS x86_64 14541.0.0) AppleWebKit/537.36 (KHTML, like Gecko) Chrome/125.0.0.0 Safari/537.36",WebKit,Chrome,125.0.0.0,ChromeOS,14541.0.0,https://app.prolific.com/,"en-US,en;q=0.9",rewc3a,agrammatical_4.mp3,grammar_learning,,,4.0,,,,,,,agrammatical,
113,5952.0,7,audio-slider-response,81,1382433,0.0-19.0-0.1,24,tonic Cs5,2024-06-02 19:28:38,6002660e01f3b1b72159da84d3eceb55,68.201.1.10,"Mozilla/5.0 (X11; CrOS x86_64 14541.0.0) AppleWebKit/537.36 (KHTML, like Gecko) Chrome/125.0.0.0 Safari/537.36",WebKit,Chrome,125.0.0.0,ChromeOS,14541.0.0,https://app.prolific.com/,"en-US,en;q=0.9",rewc3a,grammatical_5.mp3,grammar_learning,,,4.0,,,,,,,grammatical,
114,5579.0,7,audio-slider-response,82,1388126,0.0-19.0-0.2,24,tonic Cs5,2024-06-02 19:28:38,6002660e01f3b1b72159da84d3eceb55,68.201.1.10,"Mozilla/5.0 (X11; CrOS x86_64 14541.0.0) AppleWebKit/537.36 (KHTML, like Gecko) Chrome/125.0.0.0 Safari/537.36",WebKit,Chrome,125.0.0.0,ChromeOS,14541.0.0,https://app.prolific.com/,"en-US,en;q=0.9",rewc3a,agrammatical_7.mp3,grammar_learning,,,4.0,,,,,,,agrammatical,
115,6048.0,7,audio-slider-response,83,1394326,0.0-19.0-0.3,24,tonic Cs5,2024-06-02 19:28:38,6002660e01f3b1b72159da84d3eceb55,68.201.1.10,"Mozilla/5.0 (X11; CrOS x86_64 14541.0.0) AppleWebKit/537.36 (KHTML, like Gecko) Chrome/125.0.0.0 Safari/537.36",WebKit,Chrome,125.0.0.0,ChromeOS,14541.0.0,https://app.prolific.com/,"en-US,en;q=0.9",rewc3a,agrammatical_1.mp3,grammar_learning,,,4.0,,,,,,,agrammatical,
116,6411.0,7,audio-slider-response,84,1400850,0.0-19.0-0.4,24,tonic Cs5,2024-06-02 19:28:38,6002660e01f3b1b72159da84d3eceb55,68.201.1.10,"Mozilla/5.0 (X11; CrOS x86_64 14541.0.0) AppleWebKit/537.36 (KHTML, like Gecko) Chrome/125.0.0.0 Safari/537.36",WebKit,Chrome,125.0.0.0,ChromeOS,14541.0.0,https://app.prolific.com/,"en-US,en;q=0.9",rewc3a,agrammatical_2.mp3,grammar_learning,,,4.0,,,,,,,agrammatical,
117,8267.0,7,audio-slider-response,85,1409270,0.0-19.0-0.5,24,tonic Cs5,2024-06-02 19:28:38,6002660e01f3b1b72159da84d3eceb55,68.201.1.10,"Mozilla/5.0 (X11; CrOS x86_64 14541.0.0) AppleWebKit/537.36 (KHTML, like Gecko) Chrome/125.0.0.0 Safari/537.36",WebKit,Chrome,125.0.0.0,ChromeOS,14541.0.0,https://app.prolific.com/,"en-US,en;q=0.9",rewc3a,agrammatical_5.mp3,grammar_learning,,,4.0,,,,,,,agrammatical,
118,5941.0,7,audio-slider-response,86,1415337,0.0-19.0-0.6,24,tonic Cs5,2024-06-02 19:28:38,6002660e01f3b1b72159da84d3eceb55,68.201.1.10,"Mozilla/5.0 (X11; CrOS x86_64 14541.0.0) AppleWebKit/537.36 (KHTML, like Gecko) Chrome/125.0.0.0 Safari/537.36",WebKit,Chrome,125.0.0.0,ChromeOS,14541.0.0,https://app.prolific.com/,"en-US,en;q=0.9",rewc3a,agrammatical_6.mp3,grammar_learning,,,4.0,,,,,,,agrammatical,
119,5045.0,7,audio-slider-response,87,1420388,0.0-19.0-0.7,24,tonic Cs5,2024-06-02 19:28:38,6002660e01f3b1b72159da84d3eceb55,68.201.1.10,"Mozilla/5.0 (X11; CrOS x86_64 14541.0.0) AppleWebKit/537.36 (KHTML, like Gecko) Chrome/125.0.0.0 Safari/537.36",WebKit,Chrome,125.0.0.0,ChromeOS,14541.0.0,https://app.prolific.com/,"en-US,en;q=0.9",rewc3a,grammatical_2.mp3,grammar_learning,,,4.0,,,,,,,grammatical,
120,5056.0,7,audio-slider-response,88,1425457,0.0-19.0-0.8,24,tonic Cs5,2024-06-02 19:28:38,6002660e01f3b1b72159da84d3eceb55,68.201.1.10,"Mozilla/5.0 (X11; CrOS x86_64 14541.0.0) AppleWebKit/537.36 (KHTML, like Gecko) Chrome/125.0.0.0 Safari/537.36",WebKit,Chrome,125.0.0.0,ChromeOS,14541.0.0,https://app.prolific.com/,"en-US,en;q=0.9",rewc3a,grammatical_8.mp3,grammar_learning,,,4.0,,,,,,,grammatical,
121,8928.0,7,audio-slider-response,89,1434530,0.0-19.0-0.9,24,tonic Cs5,2024-06-02 19:28:38,6002660e01f3b1b72159da84d3eceb55,68.201.1.10,"Mozilla/5.0 (X11; CrOS x86_64 14541.0.0) AppleWebKit/537.36 (KHTML, like Gecko) Chrome/125.0.0.0 Safari/537.36",WebKit,Chrome,125.0.0.0,ChromeOS,14541.0.0,https://app.prolific.com/,"en-US,en;q=0.9",rewc3a,grammatical_7.mp3,grammar_learning,,,4.0,,,,,,,grammatical,
122,7499.0,7,audio-slider-response,90,1442128,0.0-19.0-0.10,24,tonic Cs5,2024-06-02 19:28:38,6002660e01f3b1b72159da84d3eceb55,68.201.1.10,"Mozilla/5.0 (X11; CrOS x86_64 14541.0.0) AppleWebKit/537.36 (KHTML, like Gecko) Chrome/125.0.0.0 Safari/537.36",WebKit,Chrome,125.0.0.0,ChromeOS,14541.0.0,https://app.prolific.com/,"en-US,en;q=0.9",rewc3a,grammatical_4.mp3,grammar_learning,,,4.0,,,,,,,grammatical,
123,12939.0,7,audio-slider-response,91,1455074,0.0-19.0-0.11,24,tonic Cs5,2024-06-02 19:28:38,6002660e01f3b1b72159da84d3eceb55,68.201.1.10,"Mozilla/5.0 (X11; CrOS x86_64 14541.0.0) AppleWebKit/537.36 (KHTML, like Gecko) Chrome/125.0.0.0 Safari/537.36",WebKit,Chrome,125.0.0.0,ChromeOS,14541.0.0,https://app.prolific.com/,"en-US,en;q=0.9",rewc3a,grammatical_1.mp3,grammar_learning,,,4.0,,,,,,,grammatical,
124,3776.0,7,audio-slider-response,92,1458996,0.0-19.0-0.12,24,tonic Cs5,2024-06-02 19:28:38,6002660e01f3b1b72159da84d3eceb55,68.201.1.10,"Mozilla/5.0 (X11; CrOS x86_64 14541.0.0) AppleWebKit/537.36 (KHTML, like Gecko) Chrome/125.0.0.0 Safari/537.36",WebKit,Chrome,125.0.0.0,ChromeOS,14541.0.0,https://app.prolific.com/,"en-US,en;q=0.9",rewc3a,grammatical_6.mp3,grammar_learning,,,4.0,,,,,,,grammatical,
125,2581.0,7,audio-slider-response,93,1461684,0.0-19.0-0.13,24,tonic Cs5,2024-06-02 19:28:38,6002660e01f3b1b72159da84d3eceb55,68.201.1.10,"Mozilla/5.0 (X11; CrOS x86_64 14541.0.0) AppleWebKit/537.36 (KHTML, like Gecko) Chrome/125.0.0.0 Safari/537.36",WebKit,Chrome,125.0.0.0,ChromeOS,14541.0.0,https://app.prolific.com/,"en-US,en;q=0.9",rewc3a,agrammatical_3.mp3,grammar_learning,,,4.0,,,,,,,agrammatical,
126,2133.0,7,audio-slider-response,94,1463918,0.0-19.0-0.14,24,tonic Cs5,2024-06-02 19:28:38,6002660e01f3b1b72159da84d3eceb55,68.201.1.10,"Mozilla/5.0 (X11; CrOS x86_64 14541.0.0) AppleWebKit/537.36 (KHTML, like Gecko) Chrome/125.0.0.0 Safari/537.36",WebKit,Chrome,125.0.0.0,ChromeOS,14541.0.0,https://app.prolific.com/,"en-US,en;q=0.9",rewc3a,grammatical_3.mp3,grammar_learning,,,4.0,,,,,,,grammatical,
127,11616.0,5,audio-slider-response,95,1475632,0.0-19.0-0.15,24,tonic Cs5,2024-06-02 19:28:38,6002660e01f3b1b72159da84d3eceb55,68.201.1.10,"Mozilla/5.0 (X11; CrOS x86_64 14541.0.0) AppleWebKit/537.36 (KHTML, like Gecko) Chrome/125.0.0.0 Safari/537.36",WebKit,Chrome,125.0.0.0,ChromeOS,14541.0.0,https://app.prolific.com/,"en-US,en;q=0.9",rewc3a,agrammatical_8.mp3,grammar_learning,,,4.0,,,,,,,agrammatical,
128,11032.0,5,audio-slider-response,79,1490694,0.0-19.0-0.0,13,tonic Cs5,2024-06-02 10:48:45,6002660e01f3b1b72159da84d3eceb55,96.28.140.148,"Mozilla/5.0 (Windows NT 10.0; Win64; x64) AppleWebKit/537.36 (KHTML, like Gecko) Chrome/125.0.0.0 Safari/537.36",WebKit,Chrome,125.0.0.0,Windows,10.0,https://app.prolific.com/,"en-US,en;q=0.9",51s1gf,agrammatical_5.mp3,grammar_learning,,,4.0,,,,,,,agrammatical,
129,6139.0,7,audio-slider-response,80,1496836,0.0-19.0-0.1,13,tonic Cs5,2024-06-02 10:48:45,6002660e01f3b1b72159da84d3eceb55,96.28.140.148,"Mozilla/5.0 (Windows NT 10.0; Win64; x64) AppleWebKit/537.36 (KHTML, like Gecko) Chrome/125.0.0.0 Safari/537.36",WebKit,Chrome,125.0.0.0,Windows,10.0,https://app.prolific.com/,"en-US,en;q=0.9",51s1gf,grammatical_1.mp3,grammar_learning,,,4.0,,,,,,,grammatical,
130,5859.0,7,audio-slider-response,81,1502786,0.0-19.0-0.2,13,tonic Cs5,2024-06-02 10:48:45,6002660e01f3b1b72159da84d3eceb55,96.28.140.148,"Mozilla/5.0 (Windows NT 10.0; Win64; x64) AppleWebKit/537.36 (KHTML, like Gecko) Chrome/125.0.0.0 Safari/537.36",WebKit,Chrome,125.0.0.0,Windows,10.0,https://app.prolific.com/,"en-US,en;q=0.9",51s1gf,grammatical_6.mp3,grammar_learning,,,4.0,,,,,,,grammatical,
131,6392.0,6,audio-slider-response,82,1509300,0.0-19.0-0.3,13,tonic Cs5,2024-06-02 10:48:45,6002660e01f3b1b72159da84d3eceb55,96.28.140.148,"Mozilla/5.0 (Windows NT 10.0; Win64; x64) AppleWebKit/537.36 (KHTML, like Gecko) Chrome/125.0.0.0 Safari/537.36",WebKit,Chrome,125.0.0.0,Windows,10.0,https://app.prolific.com/,"en-US,en;q=0.9",51s1gf,agrammatical_8.mp3,grammar_learning,,,4.0,,,,,,,agrammatical,
132,7248.0,7,audio-slider-response,83,1516550,0.0-19.0-0.4,13,tonic Cs5,2024-06-02 10:48:45,6002660e01f3b1b72159da84d3eceb55,96.28.140.148,"Mozilla/5.0 (Windows NT 10.0; Win64; x64) AppleWebKit/537.36 (KHTML, like Gecko) Chrome/125.0.0.0 Safari/537.36",WebKit,Chrome,125.0.0.0,Windows,10.0,https://app.prolific.com/,"en-US,en;q=0.9",51s1gf,grammatical_5.mp3,grammar_learning,,,4.0,,,,,,,grammatical,
133,6672.0,7,audio-slider-response,84,1523338,0.0-19.0-0.5,13,tonic Cs5,2024-06-02 10:48:45,6002660e01f3b1b72159da84d3eceb55,96.28.140.148,"Mozilla/5.0 (Windows NT 10.0; Win64; x64) AppleWebKit/537.36 (KHTML, like Gecko) Chrome/125.0.0.0 Safari/537.36",WebKit,Chrome,125.0.0.0,Windows,10.0,https://app.prolific.com/,"en-US,en;q=0.9",51s1gf,grammatical_7.mp3,grammar_learning,,,4.0,,,,,,,grammatical,
134,6568.0,6,audio-slider-response,85,1529912,0.0-19.0-0.6,13,tonic Cs5,2024-06-02 10:48:45,6002660e01f3b1b72159da84d3eceb55,96.28.140.148,"Mozilla/5.0 (Windows NT 10.0; Win64; x64) AppleWebKit/537.36 (KHTML, like Gecko) Chrome/125.0.0.0 Safari/537.36",WebKit,Chrome,125.0.0.0,Windows,10.0,https://app.prolific.com/,"en-US,en;q=0.9",51s1gf,grammatical_4.mp3,grammar_learning,,,4.0,,,,,,,grammatical,
135,6019.0,4,audio-slider-response,86,1536030,0.0-19.0-0.7,13,tonic Cs5,2024-06-02 10:48:45,6002660e01f3b1b72159da84d3eceb55,96.28.140.148,"Mozilla/5.0 (Windows NT 10.0; Win64; x64) AppleWebKit/537.36 (KHTML, like Gecko) Chrome/125.0.0.0 Safari/537.36",WebKit,Chrome,125.0.0.0,Windows,10.0,https://app.prolific.com/,"en-US,en;q=0.9",51s1gf,agrammatical_7.mp3,grammar_learning,,,4.0,,,,,,,agrammatical,
136,6419.0,3,audio-slider-response,87,1542546,0.0-19.0-0.8,13,tonic Cs5,2024-06-02 10:48:45,6002660e01f3b1b72159da84d3eceb55,96.28.140.148,"Mozilla/5.0 (Windows NT 10.0; Win64; x64) AppleWebKit/537.36 (KHTML, like Gecko) Chrome/125.0.0.0 Safari/537.36",WebKit,Chrome,125.0.0.0,Windows,10.0,https://app.prolific.com/,"en-US,en;q=0.9",51s1gf,grammatical_3.mp3,grammar_learning,,,4.0,,,,,,,grammatical,
137,8552.0,5,audio-slider-response,88,1551218,0.0-19.0-0.9,13,tonic Cs5,2024-06-02 10:48:45,6002660e01f3b1b72159da84d3eceb55,96.28.140.148,"Mozilla/5.0 (Windows NT 10.0; Win64; x64) AppleWebKit/537.36 (KHTML, like Gecko) Chrome/125.0.0.0 Safari/537.36",WebKit,Chrome,125.0.0.0,Windows,10.0,https://app.prolific.com/,"en-US,en;q=0.9",51s1gf,agrammatical_4.mp3,grammar_learning,,,4.0,,,,,,,agrammatical,
138,6229.0,3,audio-slider-response,89,1557568,0.0-19.0-0.10,13,tonic Cs5,2024-06-02 10:48:45,6002660e01f3b1b72159da84d3eceb55,96.28.140.148,"Mozilla/5.0 (Windows NT 10.0; Win64; x64) AppleWebKit/537.36 (KHTML, like Gecko) Chrome/125.0.0.0 Safari/537.36",WebKit,Chrome,125.0.0.0,Windows,10.0,https://app.prolific.com/,"en-US,en;q=0.9",51s1gf,agrammatical_6.mp3,grammar_learning,,,4.0,,,,,,,agrammatical,
139,5659.0,6,audio-slider-response,90,1563318,0.0-19.0-0.11,13,tonic Cs5,2024-06-02 10:48:45,6002660e01f3b1b72159da84d3eceb55,96.28.140.148,"Mozilla/5.0 (Windows NT 10.0; Win64; x64) AppleWebKit/537.36 (KHTML, like Gecko) Chrome/125.0.0.0 Safari/537.36",WebKit,Chrome,125.0.0.0,Windows,10.0,https://app.prolific.com/,"en-US,en;q=0.9",51s1gf,grammatical_8.mp3,grammar_learning,,,4.0,,,,,,,grammatical,
140,6261.0,6,audio-slider-response,91,1569684,0.0-19.0-0.12,13,tonic Cs5,2024-06-02 10:48:45,6002660e01f3b1b72159da84d3eceb55,96.28.140.148,"Mozilla/5.0 (Windows NT 10.0; Win64; x64) AppleWebKit/537.36 (KHTML, like Gecko) Chrome/125.0.0.0 Safari/537.36",WebKit,Chrome,125.0.0.0,Windows,10.0,https://app.prolific.com/,"en-US,en;q=0.9",51s1gf,grammatical_2.mp3,grammar_learning,,,4.0,,,,,,,grammatical,
141,6131.0,3,audio-slider-response,92,1575916,0.0-19.0-0.13,13,tonic Cs5,2024-06-02 10:48:45,6002660e01f3b1b72159da84d3eceb55,96.28.140.148,"Mozilla/5.0 (Windows NT 10.0; Win64; x64) AppleWebKit/537.36 (KHTML, like Gecko) Chrome/125.0.0.0 Safari/537.36",WebKit,Chrome,125.0.0.0,Windows,10.0,https://app.prolific.com/,"en-US,en;q=0.9",51s1gf,agrammatical_3.mp3,grammar_learning,,,4.0,,,,,,,agrammatical,
142,5459.0,3,audio-slider-response,93,1581472,0.0-19.0-0.14,13,tonic Cs5,2024-06-02 10:48:45,6002660e01f3b1b72159da84d3eceb55,96.28.140.148,"Mozilla/5.0 (Windows NT 10.0; Win64; x64) AppleWebKit/537.36 (KHTML, like Gecko) Chrome/125.0.0.0 Safari/537.36",WebKit,Chrome,125.0.0.0,Windows,10.0,https://app.prolific.com/,"en-US,en;q=0.9",51s1gf,agrammatical_1.mp3,grammar_learning,,,4.0,,,,,,,agrammatical,
143,7699.0,4,audio-slider-response,94,1589270,0.0-19.0-0.15,13,tonic Cs5,2024-06-02 10:48:45,6002660e01f3b1b72159da84d3eceb55,96.28.140.148,"Mozilla/5.0 (Windows NT 10.0; Win64; x64) AppleWebKit/537.36 (KHTML, like Gecko) Chrome/125.0.0.0 Safari/537.36",WebKit,Chrome,125.0.0.0,Windows,10.0,https://app.prolific.com/,"en-US,en;q=0.9",51s1gf,agrammatical_2.mp3,grammar_learning,,,4.0,,,,,,,agrammatical,
144,10658.0,3,audio-slider-response,80,1348679,0.0-19.0-0.0,19,tonic Cs5,2024-06-02 19:23:02,6002660e01f3b1b72159da84d3eceb55,162.199.200.77,"Mozilla/5.0 (Macintosh; Intel Mac OS X 10_15_7) AppleWebKit/537.36 (KHTML, like Gecko) Chrome/124.0.0.0 Safari/537.36",Macintosh,Chrome,124.0.0.0,OS X,10_15_7,https://app.prolific.com/,"en-US,en;q=0.9",cvyowf,agrammatical_6.mp3,grammar_learning,,,4.0,,,,,,,agrammatical,
145,7442.0,6,audio-slider-response,81,1356127,0.0-19.0-0.1,19,tonic Cs5,2024-06-02 19:23:02,6002660e01f3b1b72159da84d3eceb55,162.199.200.77,"Mozilla/5.0 (Macintosh; Intel Mac OS X 10_15_7) AppleWebKit/537.36 (KHTML, like Gecko) Chrome/124.0.0.0 Safari/537.36",Macintosh,Chrome,124.0.0.0,OS X,10_15_7,https://app.prolific.com/,"en-US,en;q=0.9",cvyowf,grammatical_1.mp3,grammar_learning,,,4.0,,,,,,,grammatical,
146,6322.0,7,audio-slider-response,82,1362447,0.0-19.0-0.2,19,tonic Cs5,2024-06-02 19:23:02,6002660e01f3b1b72159da84d3eceb55,162.199.200.77,"Mozilla/5.0 (Macintosh; Intel Mac OS X 10_15_7) AppleWebKit/537.36 (KHTML, like Gecko) Chrome/124.0.0.0 Safari/537.36",Macintosh,Chrome,124.0.0.0,OS X,10_15_7,https://app.prolific.com/,"en-US,en;q=0.9",cvyowf,grammatical_2.mp3,grammar_learning,,,4.0,,,,,,,grammatical,
147,5648.0,5,audio-slider-response,83,1369195,0.0-19.0-0.3,19,tonic Cs5,2024-06-02 19:23:02,6002660e01f3b1b72159da84d3eceb55,162.199.200.77,"Mozilla/5.0 (Macintosh; Intel Mac OS X 10_15_7) AppleWebKit/537.36 (KHTML, like Gecko) Chrome/124.0.0.0 Safari/537.36",Macintosh,Chrome,124.0.0.0,OS X,10_15_7,https://app.prolific.com/,"en-US,en;q=0.9",cvyowf,agrammatical_7.mp3,grammar_learning,,,4.0,,,,,,,agrammatical,
148,6519.0,4,audio-slider-response,84,1376779,0.0-19.0-0.4,19,tonic Cs5,2024-06-02 19:23:02,6002660e01f3b1b72159da84d3eceb55,162.199.200.77,"Mozilla/5.0 (Macintosh; Intel Mac OS X 10_15_7) AppleWebKit/537.36 (KHTML, like Gecko) Chrome/124.0.0.0 Safari/537.36",Macintosh,Chrome,124.0.0.0,OS X,10_15_7,https://app.prolific.com/,"en-US,en;q=0.9",cvyowf,agrammatical_1.mp3,grammar_learning,,,4.0,,,,,,,agrammatical,
149,5329.0,6,audio-slider-response,85,1383180,0.0-19.0-0.5,19,tonic Cs5,2024-06-02 19:23:02,6002660e01f3b1b72159da84d3eceb55,162.199.200.77,"Mozilla/5.0 (Macintosh; Intel Mac OS X 10_15_7) AppleWebKit/537.36 (KHTML, like Gecko) Chrome/124.0.0.0 Safari/537.36",Macintosh,Chrome,124.0.0.0,OS X,10_15_7,https://app.prolific.com/,"en-US,en;q=0.9",cvyowf,grammatical_4.mp3,grammar_learning,,,4.0,,,,,,,grammatical,
150,5503.0,3,audio-slider-response,86,1389745,0.0-19.0-0.6,19,tonic Cs5,2024-06-02 19:23:02,6002660e01f3b1b72159da84d3eceb55,162.199.200.77,"Mozilla/5.0 (Macintosh; Intel Mac OS X 10_15_7) AppleWebKit/537.36 (KHTML, like Gecko) Chrome/124.0.0.0 Safari/537.36",Macintosh,Chrome,124.0.0.0,OS X,10_15_7,https://app.prolific.com/,"en-US,en;q=0.9",cvyowf,agrammatical_8.mp3,grammar_learning,,,4.0,,,,,,,agrammatical,
151,6496.0,4,audio-slider-response,87,1397395,0.0-19.0-0.7,19,tonic Cs5,2024-06-02 19:23:02,6002660e01f3b1b72159da84d3eceb55,162.199.200.77,"Mozilla/5.0 (Macintosh; Intel Mac OS X 10_15_7) AppleWebKit/537.36 (KHTML, like Gecko) Chrome/124.0.0.0 Safari/537.36",Macintosh,Chrome,124.0.0.0,OS X,10_15_7,https://app.prolific.com/,"en-US,en;q=0.9",cvyowf,agrammatical_4.mp3,grammar_learning,,,4.0,,,,,,,agrammatical,
152,7187.0,3,audio-slider-response,88,1405695,0.0-19.0-0.8,19,tonic Cs5,2024-06-02 19:23:02,6002660e01f3b1b72159da84d3eceb55,162.199.200.77,"Mozilla/5.0 (Macintosh; Intel Mac OS X 10_15_7) AppleWebKit/537.36 (KHTML, like Gecko) Chrome/124.0.0.0 Safari/537.36",Macintosh,Chrome,124.0.0.0,OS X,10_15_7,https://app.prolific.com/,"en-US,en;q=0.9",cvyowf,agrammatical_3.mp3,grammar_learning,,,4.0,,,,,,,agrammatical,
153,5846.0,5,audio-slider-response,89,1412679,0.0-19.0-0.9,19,tonic Cs5,2024-06-02 19:23:02,6002660e01f3b1b72159da84d3eceb55,162.199.200.77,"Mozilla/5.0 (Macintosh; Intel Mac OS X 10_15_7) AppleWebKit/537.36 (KHTML, like Gecko) Chrome/124.0.0.0 Safari/537.36",Macintosh,Chrome,124.0.0.0,OS X,10_15_7,https://app.prolific.com/,"en-US,en;q=0.9",cvyowf,agrammatical_5.mp3,grammar_learning,,,4.0,,,,,,,agrammatical,
154,6095.0,5,audio-slider-response,90,1418778,0.0-19.0-0.10,19,tonic Cs5,2024-06-02 19:23:02,6002660e01f3b1b72159da84d3eceb55,162.199.200.77,"Mozilla/5.0 (Macintosh; Intel Mac OS X 10_15_7) AppleWebKit/537.36 (KHTML, like Gecko) Chrome/124.0.0.0 Safari/537.36",Macintosh,Chrome,124.0.0.0,OS X,10_15_7,https://app.prolific.com/,"en-US,en;q=0.9",cvyowf,grammatical_3.mp3,grammar_learning,,,4.0,,,,,,,grammatical,
155,7459.0,5,audio-slider-response,91,1427297,0.0-19.0-0.11,19,tonic Cs5,2024-06-02 19:23:02,6002660e01f3b1b72159da84d3eceb55,162.199.200.77,"Mozilla/5.0 (Macintosh; Intel Mac OS X 10_15_7) AppleWebKit/537.36 (KHTML, like Gecko) Chrome/124.0.0.0 Safari/537.36",Macintosh,Chrome,124.0.0.0,OS X,10_15_7,https://app.prolific.com/,"en-US,en;q=0.9",cvyowf,grammatical_8.mp3,grammar_learning,,,4.0,,,,,,,grammatical,
156,4853.0,5,audio-slider-response,92,1433211,0.0-19.0-0.12,19,tonic Cs5,2024-06-02 19:23:02,6002660e01f3b1b72159da84d3eceb55,162.199.200.77,"Mozilla/5.0 (Macintosh; Intel Mac OS X 10_15_7) AppleWebKit/537.36 (KHTML, like Gecko) Chrome/124.0.0.0 Safari/537.36",Macintosh,Chrome,124.0.0.0,OS X,10_15_7,https://app.prolific.com/,"en-US,en;q=0.9",cvyowf,agrammatical_2.mp3,grammar_learning,,,4.0,,,,,,,agrammatical,
157,5741.0,6,audio-slider-response,93,1440030,0.0-19.0-0.13,19,tonic Cs5,2024-06-02 19:23:02,6002660e01f3b1b72159da84d3eceb55,162.199.200.77,"Mozilla/5.0 (Macintosh; Intel Mac OS X 10_15_7) AppleWebKit/537.36 (KHTML, like Gecko) Chrome/124.0.0.0 Safari/537.36",Macintosh,Chrome,124.0.0.0,OS X,10_15_7,https://app.prolific.com/,"en-US,en;q=0.9",cvyowf,grammatical_6.mp3,grammar_learning,,,4.0,,,,,,,grammatical,
158,4928.0,6,audio-slider-response,94,1444963,0.0-19.0-0.14,19,tonic Cs5,2024-06-02 19:23:02,6002660e01f3b1b72159da84d3eceb55,162.199.200.77,"Mozilla/5.0 (Macintosh; Intel Mac OS X 10_15_7) AppleWebKit/537.36 (KHTML, like Gecko) Chrome/124.0.0.0 Safari/537.36",Macintosh,Chrome,124.0.0.0,OS X,10_15_7,https://app.prolific.com/,"en-US,en;q=0.9",cvyowf,grammatical_5.mp3,grammar_learning,,,4.0,,,,,,,grammatical,
159,5521.0,6,audio-slider-response,95,1451611,0.0-19.0-0.15,19,tonic Cs5,2024-06-02 19:23:02,6002660e01f3b1b72159da84d3eceb55,162.199.200.77,"Mozilla/5.0 (Macintosh; Intel Mac OS X 10_15_7) AppleWebKit/537.36 (KHTML, like Gecko) Chrome/124.0.0.0 Safari/537.36",Macintosh,Chrome,124.0.0.0,OS X,10_15_7,https://app.prolific.com/,"en-US,en;q=0.9",cvyowf,grammatical_7.mp3,grammar_learning,,,4.0,,,,,,,grammatical,
160,8240.0,6,audio-slider-response,78,1315225,0.0-19.0-0.0,29,tonic Cs5,2024-06-02 19:35:54,6002660e01f3b1b72159da84d3eceb55,87.115.76.142,"Mozilla/5.0 (Windows NT 10.0; Win64; x64) AppleWebKit/537.36 (KHTML, like Gecko) Chrome/125.0.0.0 Safari/537.36",WebKit,Chrome,125.0.0.0,Windows,10.0,https://app.prolific.com/,"en-GB,en-US;q=0.9,en;q=0.8",jvoox5,agrammatical_7.mp3,grammar_learning,,,4.0,,,,,,,agrammatical,
161,6531.0,5,audio-slider-response,79,1321898,0.0-19.0-0.1,29,tonic Cs5,2024-06-02 19:35:54,6002660e01f3b1b72159da84d3eceb55,87.115.76.142,"Mozilla/5.0 (Windows NT 10.0; Win64; x64) AppleWebKit/537.36 (KHTML, like Gecko) Chrome/125.0.0.0 Safari/537.36",WebKit,Chrome,125.0.0.0,Windows,10.0,https://app.prolific.com/,"en-GB,en-US;q=0.9,en;q=0.8",jvoox5,agrammatical_1.mp3,grammar_learning,,,4.0,,,,,,,agrammatical,
162,7171.0,3,audio-slider-response,80,1329170,0.0-19.0-0.2,29,tonic Cs5,2024-06-02 19:35:54,6002660e01f3b1b72159da84d3eceb55,87.115.76.142,"Mozilla/5.0 (Windows NT 10.0; Win64; x64) AppleWebKit/537.36 (KHTML, like Gecko) Chrome/125.0.0.0 Safari/537.36",WebKit,Chrome,125.0.0.0,Windows,10.0,https://app.prolific.com/,"en-GB,en-US;q=0.9,en;q=0.8",jvoox5,agrammatical_8.mp3,grammar_learning,,,4.0,,,,,,,agrammatical,
163,10259.0,3,audio-slider-response,81,1339573,0.0-19.0-0.3,29,tonic Cs5,2024-06-02 19:35:54,6002660e01f3b1b72159da84d3eceb55,87.115.76.142,"Mozilla/5.0 (Windows NT 10.0; Win64; x64) AppleWebKit/537.36 (KHTML, like Gecko) Chrome/125.0.0.0 Safari/537.36",WebKit,Chrome,125.0.0.0,Windows,10.0,https://app.prolific.com/,"en-GB,en-US;q=0.9,en;q=0.8",jvoox5,agrammatical_3.mp3,grammar_learning,,,4.0,,,,,,,agrammatical,
164,6429.0,5,audio-slider-response,82,1346008,0.0-19.0-0.4,29,tonic Cs5,2024-06-02 19:35:54,6002660e01f3b1b72159da84d3eceb55,87.115.76.142,"Mozilla/5.0 (Windows NT 10.0; Win64; x64) AppleWebKit/537.36 (KHTML, like Gecko) Chrome/125.0.0.0 Safari/537.36",WebKit,Chrome,125.0.0.0,Windows,10.0,https://app.prolific.com/,"en-GB,en-US;q=0.9,en;q=0.8",jvoox5,grammatical_1.mp3,grammar_learning,,,4.0,,,,,,,grammatical,
165,7640.0,5,audio-slider-response,83,1353744,0.0-19.0-0.5,29,tonic Cs5,2024-06-02 19:35:54,6002660e01f3b1b72159da84d3eceb55,87.115.76.142,"Mozilla/5.0 (Windows NT 10.0; Win64; x64) AppleWebKit/537.36 (KHTML, like Gecko) Chrome/125.0.0.0 Safari/537.36",WebKit,Chrome,125.0.0.0,Windows,10.0,https://app.prolific.com/,"en-GB,en-US;q=0.9,en;q=0.8",jvoox5,agrammatical_2.mp3,grammar_learning,,,4.0,,,,,,,agrammatical,
166,6789.0,6,audio-slider-response,84,1360545,0.0-19.0-0.6,29,tonic Cs5,2024-06-02 19:35:54,6002660e01f3b1b72159da84d3eceb55,87.115.76.142,"Mozilla/5.0 (Windows NT 10.0; Win64; x64) AppleWebKit/537.36 (KHTML, like Gecko) Chrome/125.0.0.0 Safari/537.36",WebKit,Chrome,125.0.0.0,Windows,10.0,https://app.prolific.com/,"en-GB,en-US;q=0.9,en;q=0.8",jvoox5,grammatical_8.mp3,grammar_learning,,,4.0,,,,,,,grammatical,
167,8229.0,3,audio-slider-response,85,1368906,0.0-19.0-0.7,29,tonic Cs5,2024-06-02 19:35:54,6002660e01f3b1b72159da84d3eceb55,87.115.76.142,"Mozilla/5.0 (Windows NT 10.0; Win64; x64) AppleWebKit/537.36 (KHTML, like Gecko) Chrome/125.0.0.0 Safari/537.36",WebKit,Chrome,125.0.0.0,Windows,10.0,https://app.prolific.com/,"en-GB,en-US;q=0.9,en;q=0.8",jvoox5,agrammatical_6.mp3,grammar_learning,,,4.0,,,,,,,agrammatical,
168,9211.0,4,audio-slider-response,86,1378232,0.0-19.0-0.8,29,tonic Cs5,2024-06-02 19:35:54,6002660e01f3b1b72159da84d3eceb55,87.115.76.142,"Mozilla/5.0 (Windows NT 10.0; Win64; x64) AppleWebKit/537.36 (KHTML, like Gecko) Chrome/125.0.0.0 Safari/537.36",WebKit,Chrome,125.0.0.0,Windows,10.0,https://app.prolific.com/,"en-GB,en-US;q=0.9,en;q=0.8",jvoox5,agrammatical_4.mp3,grammar_learning,,,4.0,,,,,,,agrammatical,
169,9531.0,5,audio-slider-response,87,1387865,0.0-19.0-0.9,29,tonic Cs5,2024-06-02 19:35:54,6002660e01f3b1b72159da84d3eceb55,87.115.76.142,"Mozilla/5.0 (Windows NT 10.0; Win64; x64) AppleWebKit/537.36 (KHTML, like Gecko) Chrome/125.0.0.0 Safari/537.36",WebKit,Chrome,125.0.0.0,Windows,10.0,https://app.prolific.com/,"en-GB,en-US;q=0.9,en;q=0.8",jvoox5,grammatical_6.mp3,grammar_learning,,,4.0,,,,,,,grammatical,
170,5931.0,5,audio-slider-response,88,1393931,0.0-19.0-0.10,29,tonic Cs5,2024-06-02 19:35:54,6002660e01f3b1b72159da84d3eceb55,87.115.76.142,"Mozilla/5.0 (Windows NT 10.0; Win64; x64) AppleWebKit/537.36 (KHTML, like Gecko) Chrome/125.0.0.0 Safari/537.36",WebKit,Chrome,125.0.0.0,Windows,10.0,https://app.prolific.com/,"en-GB,en-US;q=0.9,en;q=0.8",jvoox5,grammatical_7.mp3,grammar_learning,,,4.0,,,,,,,grammatical,
171,6440.0,5,audio-slider-response,89,1400483,0.0-19.0-0.11,29,tonic Cs5,2024-06-02 19:35:54,6002660e01f3b1b72159da84d3eceb55,87.115.76.142,"Mozilla/5.0 (Windows NT 10.0; Win64; x64) AppleWebKit/537.36 (KHTML, like Gecko) Chrome/125.0.0.0 Safari/537.36",WebKit,Chrome,125.0.0.0,Windows,10.0,https://app.prolific.com/,"en-GB,en-US;q=0.9,en;q=0.8",jvoox5,grammatical_2.mp3,grammar_learning,,,4.0,,,,,,,grammatical,
172,6659.0,6,audio-slider-response,90,1407292,0.0-19.0-0.12,29,tonic Cs5,2024-06-02 19:35:54,6002660e01f3b1b72159da84d3eceb55,87.115.76.142,"Mozilla/5.0 (Windows NT 10.0; Win64; x64) AppleWebKit/537.36 (KHTML, like Gecko) Chrome/125.0.0.0 Safari/537.36",WebKit,Chrome,125.0.0.0,Windows,10.0,https://app.prolific.com/,"en-GB,en-US;q=0.9,en;q=0.8",jvoox5,grammatical_4.mp3,grammar_learning,,,4.0,,,,,,,grammatical,
173,6051.0,5,audio-slider-response,91,1413503,0.0-19.0-0.13,29,tonic Cs5,2024-06-02 19:35:54,6002660e01f3b1b72159da84d3eceb55,87.115.76.142,"Mozilla/5.0 (Windows NT 10.0; Win64; x64) AppleWebKit/537.36 (KHTML, like Gecko) Chrome/125.0.0.0 Safari/537.36",WebKit,Chrome,125.0.0.0,Windows,10.0,https://app.prolific.com/,"en-GB,en-US;q=0.9,en;q=0.8",jvoox5,agrammatical_5.mp3,grammar_learning,,,4.0,,,,,,,agrammatical,
174,6920.0,5,audio-slider-response,92,1420530,0.0-19.0-0.14,29,tonic Cs5,2024-06-02 19:35:54,6002660e01f3b1b72159da84d3eceb55,87.115.76.142,"Mozilla/5.0 (Windows NT 10.0; Win64; x64) AppleWebKit/537.36 (KHTML, like Gecko) Chrome/125.0.0.0 Safari/537.36",WebKit,Chrome,125.0.0.0,Windows,10.0,https://app.prolific.com/,"en-GB,en-US;q=0.9,en;q=0.8",jvoox5,grammatical_3.mp3,grammar_learning,,,4.0,,,,,,,grammatical,
175,7672.0,5,audio-slider-response,93,1428315,0.0-19.0-0.15,29,tonic Cs5,2024-06-02 19:35:54,6002660e01f3b1b72159da84d3eceb55,87.115.76.142,"Mozilla/5.0 (Windows NT 10.0; Win64; x64) AppleWebKit/537.36 (KHTML, like Gecko) Chrome/125.0.0.0 Safari/537.36",WebKit,Chrome,125.0.0.0,Windows,10.0,https://app.prolific.com/,"en-GB,en-US;q=0.9,en;q=0.8",jvoox5,grammatical_5.mp3,grammar_learning,,,4.0,,,,,,,grammatical,
176,6949.0,7,audio-slider-response,79,2074209,0.0-19.0-0.0,17,tonic Cs5,2024-06-02 19:22:55,6002660e01f3b1b72159da84d3eceb55,5.64.8.120,"Mozilla/5.0 (Windows NT 10.0; Win64; x64) AppleWebKit/537.36 (KHTML, like Gecko) Chrome/125.0.0.0 Safari/537.36",WebKit,Chrome,125.0.0.0,Windows,10.0,https://app.prolific.com/,"en-GB,en-US;q=0.9,en;q=0.8",0b26we,grammatical_7.mp3,grammar_learning,,,4.0,,,,,,,grammatical,
177,8259.0,6,audio-slider-response,80,2082551,0.0-19.0-0.1,17,tonic Cs5,2024-06-02 19:22:55,6002660e01f3b1b72159da84d3eceb55,5.64.8.120,"Mozilla/5.0 (Windows NT 10.0; Win64; x64) AppleWebKit/537.36 (KHTML, like Gecko) Chrome/125.0.0.0 Safari/537.36",WebKit,Chrome,125.0.0.0,Windows,10.0,https://app.prolific.com/,"en-GB,en-US;q=0.9,en;q=0.8",0b26we,agrammatical_4.mp3,grammar_learning,,,4.0,,,,,,,agrammatical,
178,9819.0,5,audio-slider-response,81,2092442,0.0-19.0-0.2,17,tonic Cs5,2024-06-02 19:22:55,6002660e01f3b1b72159da84d3eceb55,5.64.8.120,"Mozilla/5.0 (Windows NT 10.0; Win64; x64) AppleWebKit/537.36 (KHTML, like Gecko) Chrome/125.0.0.0 Safari/537.36",WebKit,Chrome,125.0.0.0,Windows,10.0,https://app.prolific.com/,"en-GB,en-US;q=0.9,en;q=0.8",0b26we,grammatical_8.mp3,grammar_learning,,,4.0,,,,,,,grammatical,
179,8381.0,3,audio-slider-response,82,2100885,0.0-19.0-0.3,17,tonic Cs5,2024-06-02 19:22:55,6002660e01f3b1b72159da84d3eceb55,5.64.8.120,"Mozilla/5.0 (Windows NT 10.0; Win64; x64) AppleWebKit/537.36 (KHTML, like Gecko) Chrome/125.0.0.0 Safari/537.36",WebKit,Chrome,125.0.0.0,Windows,10.0,https://app.prolific.com/,"en-GB,en-US;q=0.9,en;q=0.8",0b26we,agrammatical_1.mp3,grammar_learning,,,4.0,,,,,,,agrammatical,
180,13469.0,5,audio-slider-response,83,2114361,0.0-19.0-0.4,17,tonic Cs5,2024-06-02 19:22:55,6002660e01f3b1b72159da84d3eceb55,5.64.8.120,"Mozilla/5.0 (Windows NT 10.0; Win64; x64) AppleWebKit/537.36 (KHTML, like Gecko) Chrome/125.0.0.0 Safari/537.36",WebKit,Chrome,125.0.0.0,Windows,10.0,https://app.prolific.com/,"en-GB,en-US;q=0.9,en;q=0.8",0b26we,grammatical_1.mp3,grammar_learning,,,4.0,,,,,,,grammatical,
181,8720.0,5,audio-slider-response,84,2123135,0.0-19.0-0.5,17,tonic Cs5,2024-06-02 19:22:55,6002660e01f3b1b72159da84d3eceb55,5.64.8.120,"Mozilla/5.0 (Windows NT 10.0; Win64; x64) AppleWebKit/537.36 (KHTML, like Gecko) Chrome/125.0.0.0 Safari/537.36",WebKit,Chrome,125.0.0.0,Windows,10.0,https://app.prolific.com/,"en-GB,en-US;q=0.9,en;q=0.8",0b26we,grammatical_6.mp3,grammar_learning,,,4.0,,,,,,,grammatical,
182,7181.0,7,audio-slider-response,85,2130375,0.0-19.0-0.6,17,tonic Cs5,2024-06-02 19:22:55,6002660e01f3b1b72159da84d3eceb55,5.64.8.120,"Mozilla/5.0 (Windows NT 10.0; Win64; x64) AppleWebKit/537.36 (KHTML, like Gecko) Chrome/125.0.0.0 Safari/537.36",WebKit,Chrome,125.0.0.0,Windows,10.0,https://app.prolific.com/,"en-GB,en-US;q=0.9,en;q=0.8",0b26we,agrammatical_5.mp3,grammar_learning,,,4.0,,,,,,,agrammatical,
183,7139.0,5,audio-slider-response,86,2137585,0.0-19.0-0.7,17,tonic Cs5,2024-06-02 19:22:55,6002660e01f3b1b72159da84d3eceb55,5.64.8.120,"Mozilla/5.0 (Windows NT 10.0; Win64; x64) AppleWebKit/537.36 (KHTML, like Gecko) Chrome/125.0.0.0 Safari/537.36",WebKit,Chrome,125.0.0.0,Windows,10.0,https://app.prolific.com/,"en-GB,en-US;q=0.9,en;q=0.8",0b26we,grammatical_5.mp3,grammar_learning,,,4.0,,,,,,,grammatical,
184,8461.0,4,audio-slider-response,87,2146132,0.0-19.0-0.8,17,tonic Cs5,2024-06-02 19:22:55,6002660e01f3b1b72159da84d3eceb55,5.64.8.120,"Mozilla/5.0 (Windows NT 10.0; Win64; x64) AppleWebKit/537.36 (KHTML, like Gecko) Chrome/125.0.0.0 Safari/537.36",WebKit,Chrome,125.0.0.0,Windows,10.0,https://app.prolific.com/,"en-GB,en-US;q=0.9,en;q=0.8",0b26we,agrammatical_8.mp3,grammar_learning,,,4.0,,,,,,,agrammatical,
185,8800.0,5,audio-slider-response,88,2154940,0.0-19.0-0.9,17,tonic Cs5,2024-06-02 19:22:55,6002660e01f3b1b72159da84d3eceb55,5.64.8.120,"Mozilla/5.0 (Windows NT 10.0; Win64; x64) AppleWebKit/537.36 (KHTML, like Gecko) Chrome/125.0.0.0 Safari/537.36",WebKit,Chrome,125.0.0.0,Windows,10.0,https://app.prolific.com/,"en-GB,en-US;q=0.9,en;q=0.8",0b26we,grammatical_4.mp3,grammar_learning,,,4.0,,,,,,,grammatical,
186,7659.0,5,audio-slider-response,89,2162669,0.0-19.0-0.10,17,tonic Cs5,2024-06-02 19:22:55,6002660e01f3b1b72159da84d3eceb55,5.64.8.120,"Mozilla/5.0 (Windows NT 10.0; Win64; x64) AppleWebKit/537.36 (KHTML, like Gecko) Chrome/125.0.0.0 Safari/537.36",WebKit,Chrome,125.0.0.0,Windows,10.0,https://app.prolific.com/,"en-GB,en-US;q=0.9,en;q=0.8",0b26we,grammatical_2.mp3,grammar_learning,,,4.0,,,,,,,grammatical,
187,7800.0,5,audio-slider-response,90,2170544,0.0-19.0-0.11,17,tonic Cs5,2024-06-02 19:22:55,6002660e01f3b1b72159da84d3eceb55,5.64.8.120,"Mozilla/5.0 (Windows NT 10.0; Win64; x64) AppleWebKit/537.36 (KHTML, like Gecko) Chrome/125.0.0.0 Safari/537.36",WebKit,Chrome,125.0.0.0,Windows,10.0,https://app.prolific.com/,"en-GB,en-US;q=0.9,en;q=0.8",0b26we,agrammatical_7.mp3,grammar_learning,,,4.0,,,,,,,agrammatical,
188,7349.0,4,audio-slider-response,91,2177958,0.0-19.0-0.12,17,tonic Cs5,2024-06-02 19:22:55,6002660e01f3b1b72159da84d3eceb55,5.64.8.120,"Mozilla/5.0 (Windows NT 10.0; Win64; x64) AppleWebKit/537.36 (KHTML, like Gecko) Chrome/125.0.0.0 Safari/537.36",WebKit,Chrome,125.0.0.0,Windows,10.0,https://app.prolific.com/,"en-GB,en-US;q=0.9,en;q=0.8",0b26we,agrammatical_6.mp3,grammar_learning,,,4.0,,,,,,,agrammatical,
189,7720.0,5,audio-slider-response,92,2185748,0.0-19.0-0.13,17,tonic Cs5,2024-06-02 19:22:55,6002660e01f3b1b72159da84d3eceb55,5.64.8.120,"Mozilla/5.0 (Windows NT 10.0; Win64; x64) AppleWebKit/537.36 (KHTML, like Gecko) Chrome/125.0.0.0 Safari/537.36",WebKit,Chrome,125.0.0.0,Windows,10.0,https://app.prolific.com/,"en-GB,en-US;q=0.9,en;q=0.8",0b26we,agrammatical_2.mp3,grammar_learning,,,4.0,,,,,,,agrammatical,
190,7149.0,5,audio-slider-response,93,2192965,0.0-19.0-0.14,17,tonic Cs5,2024-06-02 19:22:55,6002660e01f3b1b72159da84d3eceb55,5.64.8.120,"Mozilla/5.0 (Windows NT 10.0; Win64; x64) AppleWebKit/537.36 (KHTML, like Gecko) Chrome/125.0.0.0 Safari/537.36",WebKit,Chrome,125.0.0.0,Windows,10.0,https://app.prolific.com/,"en-GB,en-US;q=0.9,en;q=0.8",0b26we,agrammatical_3.mp3,grammar_learning,,,4.0,,,,,,,agrammatical,
191,7000.0,5,audio-slider-response,94,2200116,0.0-19.0-0.15,17,tonic Cs5,2024-06-02 19:22:55,6002660e01f3b1b72159da84d3eceb55,5.64.8.120,"Mozilla/5.0 (Windows NT 10.0; Win64; x64) AppleWebKit/537.36 (KHTML, like Gecko) Chrome/125.0.0.0 Safari/537.36",WebKit,Chrome,125.0.0.0,Windows,10.0,https://app.prolific.com/,"en-GB,en-US;q=0.9,en;q=0.8",0b26we,grammatical_3.mp3,grammar_learning,,,4.0,,,,,,,grammatical,
192,5451.0,7,audio-slider-response,79,2121349,0.0-19.0-0.0,3,tonic Cs5,2024-06-02 09:48:56,6002660e01f3b1b72159da84d3eceb55,86.132.1.156,"Mozilla/5.0 (Windows NT 10.0; Win64; x64) AppleWebKit/537.36 (KHTML, like Gecko) Chrome/125.0.0.0 Safari/537.36",WebKit,Chrome,125.0.0.0,Windows,10.0,https://app.prolific.com/,"en-GB,en-US;q=0.9,en;q=0.8",uu9050,agrammatical_5.mp3,grammar_learning,,,4.0,,,,,,,agrammatical,
193,5200.0,7,audio-slider-response,80,2126785,0.0-19.0-0.1,3,tonic Cs5,2024-06-02 09:48:56,6002660e01f3b1b72159da84d3eceb55,86.132.1.156,"Mozilla/5.0 (Windows NT 10.0; Win64; x64) AppleWebKit/537.36 (KHTML, like Gecko) Chrome/125.0.0.0 Safari/537.36",WebKit,Chrome,125.0.0.0,Windows,10.0,https://app.prolific.com/,"en-GB,en-US;q=0.9,en;q=0.8",uu9050,grammatical_8.mp3,grammar_learning,,,4.0,,,,,,,grammatical,
194,5611.0,6,audio-slider-response,81,2132665,0.0-19.0-0.2,3,tonic Cs5,2024-06-02 09:48:56,6002660e01f3b1b72159da84d3eceb55,86.132.1.156,"Mozilla/5.0 (Windows NT 10.0; Win64; x64) AppleWebKit/537.36 (KHTML, like Gecko) Chrome/125.0.0.0 Safari/537.36",WebKit,Chrome,125.0.0.0,Windows,10.0,https://app.prolific.com/,"en-GB,en-US;q=0.9,en;q=0.8",uu9050,agrammatical_6.mp3,grammar_learning,,,4.0,,,,,,,agrammatical,
195,5269.0,7,audio-slider-response,82,2138201,0.0-19.0-0.3,3,tonic Cs5,2024-06-02 09:48:56,6002660e01f3b1b72159da84d3eceb55,86.132.1.156,"Mozilla/5.0 (Windows NT 10.0; Win64; x64) AppleWebKit/537.36 (KHTML, like Gecko) Chrome/125.0.0.0 Safari/537.36",WebKit,Chrome,125.0.0.0,Windows,10.0,https://app.prolific.com/,"en-GB,en-US;q=0.9,en;q=0.8",uu9050,agrammatical_7.mp3,grammar_learning,,,4.0,,,,,,,agrammatical,
196,4771.0,7,audio-slider-response,83,2143211,0.0-19.0-0.4,3,tonic Cs5,2024-06-02 09:48:56,6002660e01f3b1b72159da84d3eceb55,86.132.1.156,"Mozilla/5.0 (Windows NT 10.0; Win64; x64) AppleWebKit/537.36 (KHTML, like Gecko) Chrome/125.0.0.0 Safari/537.36",WebKit,Chrome,125.0.0.0,Windows,10.0,https://app.prolific.com/,"en-GB,en-US;q=0.9,en;q=0.8",uu9050,grammatical_7.mp3,grammar_learning,,,4.0,,,,,,,grammatical,
197,4451.0,7,audio-slider-response,84,2147915,0.0-19.0-0.5,3,tonic Cs5,2024-06-02 09:48:56,6002660e01f3b1b72159da84d3eceb55,86.132.1.156,"Mozilla/5.0 (Windows NT 10.0; Win64; x64) AppleWebKit/537.36 (KHTML, like Gecko) Chrome/125.0.0.0 Safari/537.36",WebKit,Chrome,125.0.0.0,Windows,10.0,https://app.prolific.com/,"en-GB,en-US;q=0.9,en;q=0.8",uu9050,grammatical_6.mp3,grammar_learning,,,4.0,,,,,,,grammatical,
198,4869.0,7,audio-slider-response,85,2153017,0.0-19.0-0.6,3,tonic Cs5,2024-06-02 09:48:56,6002660e01f3b1b72159da84d3eceb55,86.132.1.156,"Mozilla/5.0 (Windows NT 10.0; Win64; x64) AppleWebKit/537.36 (KHTML, like Gecko) Chrome/125.0.0.0 Safari/537.36",WebKit,Chrome,125.0.0.0,Windows,10.0,https://app.prolific.com/,"en-GB,en-US;q=0.9,en;q=0.8",uu9050,grammatical_2.mp3,grammar_learning,,,4.0,,,,,,,grammatical,
199,5832.0,6,audio-slider-response,86,2159115,0.0-19.0-0.7,3,tonic Cs5,2024-06-02 09:48:56,6002660e01f3b1b72159da84d3eceb55,86.132.1.156,"Mozilla/5.0 (Windows NT 10.0; Win64; x64) AppleWebKit/537.36 (KHTML, like Gecko) Chrome/125.0.0.0 Safari/537.36",WebKit,Chrome,125.0.0.0,Windows,10.0,https://app.prolific.com/,"en-GB,en-US;q=0.9,en;q=0.8",uu9050,agrammatical_3.mp3,grammar_learning,,,4.0,,,,,,,agrammatical,
200,4821.0,7,audio-slider-response,87,2163943,0.0-19.0-0.8,3,tonic Cs5,2024-06-02 09:48:56,6002660e01f3b1b72159da84d3eceb55,86.132.1.156,"Mozilla/5.0 (Windows NT 10.0; Win64; x64) AppleWebKit/537.36 (KHTML, like Gecko) Chrome/125.0.0.0 Safari/537.36",WebKit,Chrome,125.0.0.0,Windows,10.0,https://app.prolific.com/,"en-GB,en-US;q=0.9,en;q=0.8",uu9050,grammatical_1.mp3,grammar_learning,,,4.0,,,,,,,grammatical,
201,5360.0,6,audio-slider-response,88,2169567,0.0-19.0-0.9,3,tonic Cs5,2024-06-02 09:48:56,6002660e01f3b1b72159da84d3eceb55,86.132.1.156,"Mozilla/5.0 (Windows NT 10.0; Win64; x64) AppleWebKit/537.36 (KHTML, like Gecko) Chrome/125.0.0.0 Safari/537.36",WebKit,Chrome,125.0.0.0,Windows,10.0,https://app.prolific.com/,"en-GB,en-US;q=0.9,en;q=0.8",uu9050,agrammatical_8.mp3,grammar_learning,,,4.0,,,,,,,agrammatical,
202,5389.0,6,audio-slider-response,89,2175201,0.0-19.0-0.10,3,tonic Cs5,2024-06-02 09:48:56,6002660e01f3b1b72159da84d3eceb55,86.132.1.156,"Mozilla/5.0 (Windows NT 10.0; Win64; x64) AppleWebKit/537.36 (KHTML, like Gecko) Chrome/125.0.0.0 Safari/537.36",WebKit,Chrome,125.0.0.0,Windows,10.0,https://app.prolific.com/,"en-GB,en-US;q=0.9,en;q=0.8",uu9050,agrammatical_4.mp3,grammar_learning,,,4.0,,,,,,,agrammatical,
203,5192.0,7,audio-slider-response,90,2180709,0.0-19.0-0.11,3,tonic Cs5,2024-06-02 09:48:56,6002660e01f3b1b72159da84d3eceb55,86.132.1.156,"Mozilla/5.0 (Windows NT 10.0; Win64; x64) AppleWebKit/537.36 (KHTML, like Gecko) Chrome/125.0.0.0 Safari/537.36",WebKit,Chrome,125.0.0.0,Windows,10.0,https://app.prolific.com/,"en-GB,en-US;q=0.9,en;q=0.8",uu9050,grammatical_5.mp3,grammar_learning,,,4.0,,,,,,,grammatical,
204,4691.0,7,audio-slider-response,91,2185665,0.0-19.0-0.12,3,tonic Cs5,2024-06-02 09:48:56,6002660e01f3b1b72159da84d3eceb55,86.132.1.156,"Mozilla/5.0 (Windows NT 10.0; Win64; x64) AppleWebKit/537.36 (KHTML, like Gecko) Chrome/125.0.0.0 Safari/537.36",WebKit,Chrome,125.0.0.0,Windows,10.0,https://app.prolific.com/,"en-GB,en-US;q=0.9,en;q=0.8",uu9050,agrammatical_1.mp3,grammar_learning,,,4.0,,,,,,,agrammatical,
205,5072.0,7,audio-slider-response,92,2190989,0.0-19.0-0.13,3,tonic Cs5,2024-06-02 09:48:56,6002660e01f3b1b72159da84d3eceb55,86.132.1.156,"Mozilla/5.0 (Windows NT 10.0; Win64; x64) AppleWebKit/537.36 (KHTML, like Gecko) Chrome/125.0.0.0 Safari/537.36",WebKit,Chrome,125.0.0.0,Windows,10.0,https://app.prolific.com/,"en-GB,en-US;q=0.9,en;q=0.8",uu9050,agrammatical_2.mp3,grammar_learning,,,4.0,,,,,,,agrammatical,
206,4709.0,7,audio-slider-response,93,2195701,0.0-19.0-0.14,3,tonic Cs5,2024-06-02 09:48:56,6002660e01f3b1b72159da84d3eceb55,86.132.1.156,"Mozilla/5.0 (Windows NT 10.0; Win64; x64) AppleWebKit/537.36 (KHTML, like Gecko) Chrome/125.0.0.0 Safari/537.36",WebKit,Chrome,125.0.0.0,Windows,10.0,https://app.prolific.com/,"en-GB,en-US;q=0.9,en;q=0.8",uu9050,grammatical_3.mp3,grammar_learning,,,4.0,,,,,,,grammatical,
207,4389.0,7,audio-slider-response,94,2200301,0.0-19.0-0.15,3,tonic Cs5,2024-06-02 09:48:56,6002660e01f3b1b72159da84d3eceb55,86.132.1.156,"Mozilla/5.0 (Windows NT 10.0; Win64; x64) AppleWebKit/537.36 (KHTML, like Gecko) Chrome/125.0.0.0 Safari/537.36",WebKit,Chrome,125.0.0.0,Windows,10.0,https://app.prolific.com/,"en-GB,en-US;q=0.9,en;q=0.8",uu9050,grammatical_4.mp3,grammar_learning,,,4.0,,,,,,,grammatical,
208,11668.0,6,audio-slider-response,80,3169020,0.0-19.0-0.0,5,tonic Cs5,2024-06-02 10:37:22,6002660e01f3b1b72159da84d3eceb55,152.37.111.22,"Mozilla/5.0 (Macintosh; Intel Mac OS X 10_15_7) AppleWebKit/537.36 (KHTML, like Gecko) Chrome/125.0.0.0 Safari/537.36",Macintosh,Chrome,125.0.0.0,OS X,10_15_7,https://app.prolific.com/,"en-US,en;q=0.9,pt;q=0.8",s3eylm,agrammatical_3.mp3,grammar_learning,,,4.0,,,,,,,agrammatical,
209,6641.0,7,audio-slider-response,81,3175667,0.0-19.0-0.1,5,tonic Cs5,2024-06-02 10:37:22,6002660e01f3b1b72159da84d3eceb55,152.37.111.22,"Mozilla/5.0 (Macintosh; Intel Mac OS X 10_15_7) AppleWebKit/537.36 (KHTML, like Gecko) Chrome/125.0.0.0 Safari/537.36",Macintosh,Chrome,125.0.0.0,OS X,10_15_7,https://app.prolific.com/,"en-US,en;q=0.9,pt;q=0.8",s3eylm,grammatical_2.mp3,grammar_learning,,,4.0,,,,,,,grammatical,
210,5753.0,7,audio-slider-response,82,3181493,0.0-19.0-0.2,5,tonic Cs5,2024-06-02 10:37:22,6002660e01f3b1b72159da84d3eceb55,152.37.111.22,"Mozilla/5.0 (Macintosh; Intel Mac OS X 10_15_7) AppleWebKit/537.36 (KHTML, like Gecko) Chrome/125.0.0.0 Safari/537.36",Macintosh,Chrome,125.0.0.0,OS X,10_15_7,https://app.prolific.com/,"en-US,en;q=0.9,pt;q=0.8",s3eylm,grammatical_7.mp3,grammar_learning,,,4.0,,,,,,,grammatical,
211,6351.0,7,audio-slider-response,83,3187845,0.0-19.0-0.3,5,tonic Cs5,2024-06-02 10:37:22,6002660e01f3b1b72159da84d3eceb55,152.37.111.22,"Mozilla/5.0 (Macintosh; Intel Mac OS X 10_15_7) AppleWebKit/537.36 (KHTML, like Gecko) Chrome/125.0.0.0 Safari/537.36",Macintosh,Chrome,125.0.0.0,OS X,10_15_7,https://app.prolific.com/,"en-US,en;q=0.9,pt;q=0.8",s3eylm,grammatical_1.mp3,grammar_learning,,,4.0,,,,,,,grammatical,
212,6478.0,6,audio-slider-response,84,3194388,0.0-19.0-0.4,5,tonic Cs5,2024-06-02 10:37:22,6002660e01f3b1b72159da84d3eceb55,152.37.111.22,"Mozilla/5.0 (Macintosh; Intel Mac OS X 10_15_7) AppleWebKit/537.36 (KHTML, like Gecko) Chrome/125.0.0.0 Safari/537.36",Macintosh,Chrome,125.0.0.0,OS X,10_15_7,https://app.prolific.com/,"en-US,en;q=0.9,pt;q=0.8",s3eylm,grammatical_4.mp3,grammar_learning,,,4.0,,,,,,,grammatical,
213,6792.0,6,audio-slider-response,85,3201249,0.0-19.0-0.5,5,tonic Cs5,2024-06-02 10:37:22,6002660e01f3b1b72159da84d3eceb55,152.37.111.22,"Mozilla/5.0 (Macintosh; Intel Mac OS X 10_15_7) AppleWebKit/537.36 (KHTML, like Gecko) Chrome/125.0.0.0 Safari/537.36",Macintosh,Chrome,125.0.0.0,OS X,10_15_7,https://app.prolific.com/,"en-US,en;q=0.9,pt;q=0.8",s3eylm,grammatical_3.mp3,grammar_learning,,,4.0,,,,,,,grammatical,
214,5973.0,4,audio-slider-response,86,3207293,0.0-19.0-0.6,5,tonic Cs5,2024-06-02 10:37:22,6002660e01f3b1b72159da84d3eceb55,152.37.111.22,"Mozilla/5.0 (Macintosh; Intel Mac OS X 10_15_7) AppleWebKit/537.36 (KHTML, like Gecko) Chrome/125.0.0.0 Safari/537.36",Macintosh,Chrome,125.0.0.0,OS X,10_15_7,https://app.prolific.com/,"en-US,en;q=0.9,pt;q=0.8",s3eylm,agrammatical_7.mp3,grammar_learning,,,4.0,,,,,,,agrammatical,
215,5532.0,4,audio-slider-response,87,3212896,0.0-19.0-0.7,5,tonic Cs5,2024-06-02 10:37:22,6002660e01f3b1b72159da84d3eceb55,152.37.111.22,"Mozilla/5.0 (Macintosh; Intel Mac OS X 10_15_7) AppleWebKit/537.36 (KHTML, like Gecko) Chrome/125.0.0.0 Safari/537.36",Macintosh,Chrome,125.0.0.0,OS X,10_15_7,https://app.prolific.com/,"en-US,en;q=0.9,pt;q=0.8",s3eylm,agrammatical_5.mp3,grammar_learning,,,4.0,,,,,,,agrammatical,
216,5741.0,6,audio-slider-response,88,3218708,0.0-19.0-0.8,5,tonic Cs5,2024-06-02 10:37:22,6002660e01f3b1b72159da84d3eceb55,152.37.111.22,"Mozilla/5.0 (Macintosh; Intel Mac OS X 10_15_7) AppleWebKit/537.36 (KHTML, like Gecko) Chrome/125.0.0.0 Safari/537.36",Macintosh,Chrome,125.0.0.0,OS X,10_15_7,https://app.prolific.com/,"en-US,en;q=0.9,pt;q=0.8",s3eylm,grammatical_6.mp3,grammar_learning,,,4.0,,,,,,,grammatical,
217,6055.0,2,audio-slider-response,89,3224836,0.0-19.0-0.9,5,tonic Cs5,2024-06-02 10:37:22,6002660e01f3b1b72159da84d3eceb55,152.37.111.22,"Mozilla/5.0 (Macintosh; Intel Mac OS X 10_15_7) AppleWebKit/537.36 (KHTML, like Gecko) Chrome/125.0.0.0 Safari/537.36",Macintosh,Chrome,125.0.0.0,OS X,10_15_7,https://app.prolific.com/,"en-US,en;q=0.9,pt;q=0.8",s3eylm,agrammatical_6.mp3,grammar_learning,,,4.0,,,,,,,agrammatical,
218,6147.0,2,audio-slider-response,90,3231059,0.0-19.0-0.10,5,tonic Cs5,2024-06-02 10:37:22,6002660e01f3b1b72159da84d3eceb55,152.37.111.22,"Mozilla/5.0 (Macintosh; Intel Mac OS X 10_15_7) AppleWebKit/537.36 (KHTML, like Gecko) Chrome/125.0.0.0 Safari/537.36",Macintosh,Chrome,125.0.0.0,OS X,10_15_7,https://app.prolific.com/,"en-US,en;q=0.9,pt;q=0.8",s3eylm,agrammatical_2.mp3,grammar_learning,,,4.0,,,,,,,agrammatical,
219,6020.0,1,audio-slider-response,91,3237154,0.0-19.0-0.11,5,tonic Cs5,2024-06-02 10:37:22,6002660e01f3b1b72159da84d3eceb55,152.37.111.22,"Mozilla/5.0 (Macintosh; Intel Mac OS X 10_15_7) AppleWebKit/537.36 (KHTML, like Gecko) Chrome/125.0.0.0 Safari/537.36",Macintosh,Chrome,125.0.0.0,OS X,10_15_7,https://app.prolific.com/,"en-US,en;q=0.9,pt;q=0.8",s3eylm,agrammatical_8.mp3,grammar_learning,,,4.0,,,,,,,agrammatical,
220,7117.0,5,audio-slider-response,92,3244347,0.0-19.0-0.12,5,tonic Cs5,2024-06-02 10:37:22,6002660e01f3b1b72159da84d3eceb55,152.37.111.22,"Mozilla/5.0 (Macintosh; Intel Mac OS X 10_15_7) AppleWebKit/537.36 (KHTML, like Gecko) Chrome/125.0.0.0 Safari/537.36",Macintosh,Chrome,125.0.0.0,OS X,10_15_7,https://app.prolific.com/,"en-US,en;q=0.9,pt;q=0.8",s3eylm,grammatical_8.mp3,grammar_learning,,,4.0,,,,,,,grammatical,
221,5991.0,2,audio-slider-response,93,3250408,0.0-19.0-0.13,5,tonic Cs5,2024-06-02 10:37:22,6002660e01f3b1b72159da84d3eceb55,152.37.111.22,"Mozilla/5.0 (Macintosh; Intel Mac OS X 10_15_7) AppleWebKit/537.36 (KHTML, like Gecko) Chrome/125.0.0.0 Safari/537.36",Macintosh,Chrome,125.0.0.0,OS X,10_15_7,https://app.prolific.com/,"en-US,en;q=0.9,pt;q=0.8",s3eylm,agrammatical_4.mp3,grammar_learning,,,4.0,,,,,,,agrammatical,
222,6159.0,3,audio-slider-response,94,3256642,0.0-19.0-0.14,5,tonic Cs5,2024-06-02 10:37:22,6002660e01f3b1b72159da84d3eceb55,152.37.111.22,"Mozilla/5.0 (Macintosh; Intel Mac OS X 10_15_7) AppleWebKit/537.36 (KHTML, like Gecko) Chrome/125.0.0.0 Safari/537.36",Macintosh,Chrome,125.0.0.0,OS X,10_15_7,https://app.prolific.com/,"en-US,en;q=0.9,pt;q=0.8",s3eylm,agrammatical_1.mp3,grammar_learning,,,4.0,,,,,,,agrammatical,
223,6600.0,4,audio-slider-response,95,3263311,0.0-19.0-0.15,5,tonic Cs5,2024-06-02 10:37:22,6002660e01f3b1b72159da84d3eceb55,152.37.111.22,"Mozilla/5.0 (Macintosh; Intel Mac OS X 10_15_7) AppleWebKit/537.36 (KHTML, like Gecko) Chrome/125.0.0.0 Safari/537.36",Macintosh,Chrome,125.0.0.0,OS X,10_15_7,https://app.prolific.com/,"en-US,en;q=0.9,pt;q=0.8",s3eylm,grammatical_5.mp3,grammar_learning,,,4.0,,,,,,,grammatical,
224,6400.0,3,audio-slider-response,79,1350964,0.0-19.0-0.0,4,tonic Cs5,2024-06-02 10:37:16,6002660e01f3b1b72159da84d3eceb55,66.108.19.88,"Mozilla/5.0 (Windows NT 10.0; Win64; x64) AppleWebKit/537.36 (KHTML, like Gecko) Chrome/125.0.0.0 Safari/537.36 Edg/125.0.0.0",WebKit,Edge,125.0.0.0,Windows,10.0,https://app.prolific.com/,"en-US,en;q=0.9",nveknx,agrammatical_8.mp3,grammar_learning,,,4.0,,,,,,,agrammatical,
225,9491.0,4,audio-slider-response,80,1361146,0.0-19.0-0.1,4,tonic Cs5,2024-06-02 10:37:16,6002660e01f3b1b72159da84d3eceb55,66.108.19.88,"Mozilla/5.0 (Windows NT 10.0; Win64; x64) AppleWebKit/537.36 (KHTML, like Gecko) Chrome/125.0.0.0 Safari/537.36 Edg/125.0.0.0",WebKit,Edge,125.0.0.0,Windows,10.0,https://app.prolific.com/,"en-US,en;q=0.9",nveknx,agrammatical_5.mp3,grammar_learning,,,4.0,,,,,,,agrammatical,
226,6139.0,6,audio-slider-response,81,1367968,0.0-19.0-0.2,4,tonic Cs5,2024-06-02 10:37:16,6002660e01f3b1b72159da84d3eceb55,66.108.19.88,"Mozilla/5.0 (Windows NT 10.0; Win64; x64) AppleWebKit/537.36 (KHTML, like Gecko) Chrome/125.0.0.0 Safari/537.36 Edg/125.0.0.0",WebKit,Edge,125.0.0.0,Windows,10.0,https://app.prolific.com/,"en-US,en;q=0.9",nveknx,grammatical_6.mp3,grammar_learning,,,4.0,,,,,,,grammatical,
227,6760.0,6,audio-slider-response,82,1375438,0.0-19.0-0.3,4,tonic Cs5,2024-06-02 10:37:16,6002660e01f3b1b72159da84d3eceb55,66.108.19.88,"Mozilla/5.0 (Windows NT 10.0; Win64; x64) AppleWebKit/537.36 (KHTML, like Gecko) Chrome/125.0.0.0 Safari/537.36 Edg/125.0.0.0",WebKit,Edge,125.0.0.0,Windows,10.0,https://app.prolific.com/,"en-US,en;q=0.9",nveknx,agrammatical_1.mp3,grammar_learning,,,4.0,,,,,,,agrammatical,
228,5611.0,5,audio-slider-response,83,1381731,0.0-19.0-0.4,4,tonic Cs5,2024-06-02 10:37:16,6002660e01f3b1b72159da84d3eceb55,66.108.19.88,"Mozilla/5.0 (Windows NT 10.0; Win64; x64) AppleWebKit/537.36 (KHTML, like Gecko) Chrome/125.0.0.0 Safari/537.36 Edg/125.0.0.0",WebKit,Edge,125.0.0.0,Windows,10.0,https://app.prolific.com/,"en-US,en;q=0.9",nveknx,agrammatical_4.mp3,grammar_learning,,,4.0,,,,,,,agrammatical,
229,6061.0,6,audio-slider-response,84,1388509,0.0-19.0-0.5,4,tonic Cs5,2024-06-02 10:37:16,6002660e01f3b1b72159da84d3eceb55,66.108.19.88,"Mozilla/5.0 (Windows NT 10.0; Win64; x64) AppleWebKit/537.36 (KHTML, like Gecko) Chrome/125.0.0.0 Safari/537.36 Edg/125.0.0.0",WebKit,Edge,125.0.0.0,Windows,10.0,https://app.prolific.com/,"en-US,en;q=0.9",nveknx,grammatical_2.mp3,grammar_learning,,,4.0,,,,,,,grammatical,
230,5592.0,3,audio-slider-response,85,1394831,0.0-19.0-0.6,4,tonic Cs5,2024-06-02 10:37:16,6002660e01f3b1b72159da84d3eceb55,66.108.19.88,"Mozilla/5.0 (Windows NT 10.0; Win64; x64) AppleWebKit/537.36 (KHTML, like Gecko) Chrome/125.0.0.0 Safari/537.36 Edg/125.0.0.0",WebKit,Edge,125.0.0.0,Windows,10.0,https://app.prolific.com/,"en-US,en;q=0.9",nveknx,agrammatical_3.mp3,grammar_learning,,,4.0,,,,,,,agrammatical,
231,7160.0,6,audio-slider-response,86,1448240,0.0-19.0-0.7,4,tonic Cs5,2024-06-02 10:37:16,6002660e01f3b1b72159da84d3eceb55,66.108.19.88,"Mozilla/5.0 (Windows NT 10.0; Win64; x64) AppleWebKit/537.36 (KHTML, like Gecko) Chrome/125.0.0.0 Safari/537.36 Edg/125.0.0.0",WebKit,Edge,125.0.0.0,Windows,10.0,https://app.prolific.com/,"en-US,en;q=0.9",nveknx,agrammatical_7.mp3,grammar_learning,,,4.0,,,,,,,agrammatical,
232,6109.0,5,audio-slider-response,87,1454346,0.0-19.0-0.8,4,tonic Cs5,2024-06-02 10:37:16,6002660e01f3b1b72159da84d3eceb55,66.108.19.88,"Mozilla/5.0 (Windows NT 10.0; Win64; x64) AppleWebKit/537.36 (KHTML, like Gecko) Chrome/125.0.0.0 Safari/537.36 Edg/125.0.0.0",WebKit,Edge,125.0.0.0,Windows,10.0,https://app.prolific.com/,"en-US,en;q=0.9",nveknx,grammatical_7.mp3,grammar_learning,,,4.0,,,,,,,grammatical,
233,6128.0,5,audio-slider-response,88,1461173,0.0-19.0-0.9,4,tonic Cs5,2024-06-02 10:37:16,6002660e01f3b1b72159da84d3eceb55,66.108.19.88,"Mozilla/5.0 (Windows NT 10.0; Win64; x64) AppleWebKit/537.36 (KHTML, like Gecko) Chrome/125.0.0.0 Safari/537.36 Edg/125.0.0.0",WebKit,Edge,125.0.0.0,Windows,10.0,https://app.prolific.com/,"en-US,en;q=0.9",nveknx,agrammatical_2.mp3,grammar_learning,,,4.0,,,,,,,agrammatical,
234,5920.0,4,audio-slider-response,89,1467814,0.0-19.0-0.10,4,tonic Cs5,2024-06-02 10:37:16,6002660e01f3b1b72159da84d3eceb55,66.108.19.88,"Mozilla/5.0 (Windows NT 10.0; Win64; x64) AppleWebKit/537.36 (KHTML, like Gecko) Chrome/125.0.0.0 Safari/537.36 Edg/125.0.0.0",WebKit,Edge,125.0.0.0,Windows,10.0,https://app.prolific.com/,"en-US,en;q=0.9",nveknx,grammatical_3.mp3,grammar_learning,,,4.0,,,,,,,grammatical,
235,6080.0,7,audio-slider-response,90,1474611,0.0-19.0-0.11,4,tonic Cs5,2024-06-02 10:37:16,6002660e01f3b1b72159da84d3eceb55,66.108.19.88,"Mozilla/5.0 (Windows NT 10.0; Win64; x64) AppleWebKit/537.36 (KHTML, like Gecko) Chrome/125.0.0.0 Safari/537.36 Edg/125.0.0.0",WebKit,Edge,125.0.0.0,Windows,10.0,https://app.prolific.com/,"en-US,en;q=0.9",nveknx,grammatical_4.mp3,grammar_learning,,,4.0,,,,,,,grammatical,
236,5861.0,7,audio-slider-response,91,1480474,0.0-19.0-0.12,4,tonic Cs5,2024-06-02 10:37:16,6002660e01f3b1b72159da84d3eceb55,66.108.19.88,"Mozilla/5.0 (Windows NT 10.0; Win64; x64) AppleWebKit/537.36 (KHTML, like Gecko) Chrome/125.0.0.0 Safari/537.36 Edg/125.0.0.0",WebKit,Edge,125.0.0.0,Windows,10.0,https://app.prolific.com/,"en-US,en;q=0.9",nveknx,grammatical_1.mp3,grammar_learning,,,4.0,,,,,,,grammatical,
237,5429.0,6,audio-slider-response,92,1486594,0.0-19.0-0.13,4,tonic Cs5,2024-06-02 10:37:16,6002660e01f3b1b72159da84d3eceb55,66.108.19.88,"Mozilla/5.0 (Windows NT 10.0; Win64; x64) AppleWebKit/537.36 (KHTML, like Gecko) Chrome/125.0.0.0 Safari/537.36 Edg/125.0.0.0",WebKit,Edge,125.0.0.0,Windows,10.0,https://app.prolific.com/,"en-US,en;q=0.9",nveknx,agrammatical_6.mp3,grammar_learning,,,4.0,,,,,,,agrammatical,
238,5552.0,6,audio-slider-response,93,1492841,0.0-19.0-0.14,4,tonic Cs5,2024-06-02 10:37:16,6002660e01f3b1b72159da84d3eceb55,66.108.19.88,"Mozilla/5.0 (Windows NT 10.0; Win64; x64) AppleWebKit/537.36 (KHTML, like Gecko) Chrome/125.0.0.0 Safari/537.36 Edg/125.0.0.0",WebKit,Edge,125.0.0.0,Windows,10.0,https://app.prolific.com/,"en-US,en;q=0.9",nveknx,grammatical_5.mp3,grammar_learning,,,4.0,,,,,,,grammatical,
239,7019.0,5,audio-slider-response,94,1500530,0.0-19.0-0.15,4,tonic Cs5,2024-06-02 10:37:16,6002660e01f3b1b72159da84d3eceb55,66.108.19.88,"Mozilla/5.0 (Windows NT 10.0; Win64; x64) AppleWebKit/537.36 (KHTML, like Gecko) Chrome/125.0.0.0 Safari/537.36 Edg/125.0.0.0",WebKit,Edge,125.0.0.0,Windows,10.0,https://app.prolific.com/,"en-US,en;q=0.9",nveknx,grammatical_8.mp3,grammar_learning,,,4.0,,,,,,,grammatical,
