rt,response,trial_type,trial_index,time_elapsed,internal_node_id,run_id,condition,recorded_at,source_code_version,ip,user_agent,device,browser,browser_version,platform,platform_version,referer,accept_language,subject,stimulus,task,correct,subtask,slider_start,accent,high_IC,accent_chosen,high_IC_chosen,question_order
1268,"{""prolific_id"":""""}",survey-html-form,0,1270,0.0-0.0,4,tonic G4,2024-04-29 16:00:06,70dd8527a7d03d02011aab09188cbbde,129.199.158.16,"Mozilla/5.0 (Macintosh; Intel Mac OS X 10_15_7) AppleWebKit/537.36 (KHTML, like Gecko) Chrome/123.0.0.0 Safari/537.36",Macintosh,Chrome,123.0.0.0,OS X,10_15_7,null,"en-US,en;q=0.9,fr;q=0.8",fpzo29,,,,,,,,,,
436, ,html-keyboard-response,1,1708,0.0-1.0,4,tonic G4,2024-04-29 16:00:06,70dd8527a7d03d02011aab09188cbbde,129.199.158.16,"Mozilla/5.0 (Macintosh; Intel Mac OS X 10_15_7) AppleWebKit/537.36 (KHTML, like Gecko) Chrome/123.0.0.0 Safari/537.36",Macintosh,Chrome,123.0.0.0,OS X,10_15_7,null,"en-US,en;q=0.9,fr;q=0.8",fpzo29,"
    <p>Please complete the experiment in a quiet place.
      We highly recommend using headphones.</p>

    </p align = 'justify'> <b>Press the space bar to proceed.</b> </p>",,,,,,,,,
312, ,html-keyboard-response,2,2021,0.0-2.0,4,tonic G4,2024-04-29 16:00:06,70dd8527a7d03d02011aab09188cbbde,129.199.158.16,"Mozilla/5.0 (Macintosh; Intel Mac OS X 10_15_7) AppleWebKit/537.36 (KHTML, like Gecko) Chrome/123.0.0.0 Safari/537.36",Macintosh,Chrome,123.0.0.0,OS X,10_15_7,null,"en-US,en;q=0.9,fr;q=0.8",fpzo29,"
    <p>A series of soundchecks will now be played to help you adjust the volume
      to a comfortable level. </p>

    </p align = 'justify'> <b>Press the space bar to proceed.</b> </p>",,,,,,,,,
911,1,audio-button-response,3,2973,0.0-3.0-0.0,4,tonic G4,2024-04-29 16:00:06,70dd8527a7d03d02011aab09188cbbde,129.199.158.16,"Mozilla/5.0 (Macintosh; Intel Mac OS X 10_15_7) AppleWebKit/537.36 (KHTML, like Gecko) Chrome/123.0.0.0 Safari/537.36",Macintosh,Chrome,123.0.0.0,OS X,10_15_7,null,"en-US,en;q=0.9,fr;q=0.8",fpzo29,grammatical_1.mp3,,,,,,,,,
403, ,html-keyboard-response,4,3378,0.0-4.0,4,tonic G4,2024-04-29 16:00:06,70dd8527a7d03d02011aab09188cbbde,129.199.158.16,"Mozilla/5.0 (Macintosh; Intel Mac OS X 10_15_7) AppleWebKit/537.36 (KHTML, like Gecko) Chrome/123.0.0.0 Safari/537.36",Macintosh,Chrome,123.0.0.0,OS X,10_15_7,null,"en-US,en;q=0.9,fr;q=0.8",fpzo29,"<p width = 300 px>
    You will now hear two melodies in succession. 
    The notes in each melody are the same, but there is an accent on one note for one of the melodies. 
    <b>Listen for which melody has the accent.</b>
    </p>
    
    Press the space bar to continue.",,,,,,,,,
423, ,html-keyboard-response,5,3802,0.0-5.0,4,tonic G4,2024-04-29 16:00:06,70dd8527a7d03d02011aab09188cbbde,129.199.158.16,"Mozilla/5.0 (Macintosh; Intel Mac OS X 10_15_7) AppleWebKit/537.36 (KHTML, like Gecko) Chrome/123.0.0.0 Safari/537.36",Macintosh,Chrome,123.0.0.0,OS X,10_15_7,null,"en-US,en;q=0.9,fr;q=0.8",fpzo29,"<p width = 300 px>
    <b>You must score at least 2/3 to proceed with the experiment.</b>
    </p>
    
    Press the space bar to continue.",,,,,,,,,
726,1,audio-button-response,6,4555,0.0-6.0,4,tonic G4,2024-04-29 16:00:06,70dd8527a7d03d02011aab09188cbbde,129.199.158.16,"Mozilla/5.0 (Macintosh; Intel Mac OS X 10_15_7) AppleWebKit/537.36 (KHTML, like Gecko) Chrome/123.0.0.0 Safari/537.36",Macintosh,Chrome,123.0.0.0,OS X,10_15_7,null,"en-US,en;q=0.9,fr;q=0.8",fpzo29,fc_accents_32_1.mp3,soundcheck,true,,,,,,,
594, ,html-keyboard-response,7,5151,0.0-7.0,4,tonic G4,2024-04-29 16:00:06,70dd8527a7d03d02011aab09188cbbde,129.199.158.16,"Mozilla/5.0 (Macintosh; Intel Mac OS X 10_15_7) AppleWebKit/537.36 (KHTML, like Gecko) Chrome/123.0.0.0 Safari/537.36",Macintosh,Chrome,123.0.0.0,OS X,10_15_7,null,"en-US,en;q=0.9,fr;q=0.8",fpzo29,<p>Correct!</p> Press the space bar to continue.,,,,,,,,,
418,1,audio-button-response,8,5597,0.0-8.0,4,tonic G4,2024-04-29 16:00:06,70dd8527a7d03d02011aab09188cbbde,129.199.158.16,"Mozilla/5.0 (Macintosh; Intel Mac OS X 10_15_7) AppleWebKit/537.36 (KHTML, like Gecko) Chrome/123.0.0.0 Safari/537.36",Macintosh,Chrome,123.0.0.0,OS X,10_15_7,null,"en-US,en;q=0.9,fr;q=0.8",fpzo29,fc_accents_56_4.mp3,soundcheck,true,,,,,,,
294, ,html-keyboard-response,9,5892,0.0-9.0,4,tonic G4,2024-04-29 16:00:06,70dd8527a7d03d02011aab09188cbbde,129.199.158.16,"Mozilla/5.0 (Macintosh; Intel Mac OS X 10_15_7) AppleWebKit/537.36 (KHTML, like Gecko) Chrome/123.0.0.0 Safari/537.36",Macintosh,Chrome,123.0.0.0,OS X,10_15_7,null,"en-US,en;q=0.9,fr;q=0.8",fpzo29,<p>Correct!</p> Press the space bar to continue.,,,,,,,,,
377,1,audio-button-response,10,6294,0.0-10.0,4,tonic G4,2024-04-29 16:00:06,70dd8527a7d03d02011aab09188cbbde,129.199.158.16,"Mozilla/5.0 (Macintosh; Intel Mac OS X 10_15_7) AppleWebKit/537.36 (KHTML, like Gecko) Chrome/123.0.0.0 Safari/537.36",Macintosh,Chrome,123.0.0.0,OS X,10_15_7,null,"en-US,en;q=0.9,fr;q=0.8",fpzo29,fc_accents_54_4.mp3,soundcheck,true,,,,,,,
407, ,html-keyboard-response,11,6702,0.0-11.0,4,tonic G4,2024-04-29 16:00:06,70dd8527a7d03d02011aab09188cbbde,129.199.158.16,"Mozilla/5.0 (Macintosh; Intel Mac OS X 10_15_7) AppleWebKit/537.36 (KHTML, like Gecko) Chrome/123.0.0.0 Safari/537.36",Macintosh,Chrome,123.0.0.0,OS X,10_15_7,null,"en-US,en;q=0.9,fr;q=0.8",fpzo29,<p>Correct!</p> Press the space bar to continue.,,,,,,,,,
499, ,html-keyboard-response,12,7203,0.0-12.0,4,tonic G4,2024-04-29 16:00:06,70dd8527a7d03d02011aab09188cbbde,129.199.158.16,"Mozilla/5.0 (Macintosh; Intel Mac OS X 10_15_7) AppleWebKit/537.36 (KHTML, like Gecko) Chrome/123.0.0.0 Safari/537.36",Macintosh,Chrome,123.0.0.0,OS X,10_15_7,null,"en-US,en;q=0.9,fr;q=0.8",fpzo29,"If you got <b>less than 2/3</b> of the previous soundcheck questions correct, <b>we unfortunately cannot use your data or pay you</b>. Please exit the experiment now.
    
    <p>If you got <b>more than 2/3</b> correct, press the space bar to continue</p>.",,,,,,,,,
377, ,html-keyboard-response,13,7581,0.0-13.0,4,tonic G4,2024-04-29 16:00:06,70dd8527a7d03d02011aab09188cbbde,129.199.158.16,"Mozilla/5.0 (Macintosh; Intel Mac OS X 10_15_7) AppleWebKit/537.36 (KHTML, like Gecko) Chrome/123.0.0.0 Safari/537.36",Macintosh,Chrome,123.0.0.0,OS X,10_15_7,null,"en-US,en;q=0.9,fr;q=0.8",fpzo29,"<p>Please listen carefully to the following set of melodies. 
      You will occassionally be asked some basic questions about some of the melodies to check your attention level. </p>
    <p><b>Press the space bar to continue.</b></p>",,,,,,,,,
314, ,html-keyboard-response,14,7897,0.0-14.0,4,tonic G4,2024-04-29 16:00:06,70dd8527a7d03d02011aab09188cbbde,129.199.158.16,"Mozilla/5.0 (Macintosh; Intel Mac OS X 10_15_7) AppleWebKit/537.36 (KHTML, like Gecko) Chrome/123.0.0.0 Safari/537.36",Macintosh,Chrome,123.0.0.0,OS X,10_15_7,null,"en-US,en;q=0.9,fr;q=0.8",fpzo29,"<p>The attention questions vary in difficulty, but you must get at least some questions correct for us to pay you.</p>
    <p><b>Press the space bar to continue.</b></p>",,,,,,,,,
405, ,html-keyboard-response,15,8303,0.0-15.0,4,tonic G4,2024-04-29 16:00:06,70dd8527a7d03d02011aab09188cbbde,129.199.158.16,"Mozilla/5.0 (Macintosh; Intel Mac OS X 10_15_7) AppleWebKit/537.36 (KHTML, like Gecko) Chrome/123.0.0.0 Safari/537.36",Macintosh,Chrome,123.0.0.0,OS X,10_15_7,null,"en-US,en;q=0.9,fr;q=0.8",fpzo29,"
    This part of the experiment should take <b>15-20 minutes</b>. 
    <p><b>Press the space bar to begin.</b></p>",,,,,,,,,
168, ,audio-keyboard-response,16,8753,0.0-16.0-0.0,4,tonic G4,2024-04-29 16:00:06,70dd8527a7d03d02011aab09188cbbde,129.199.158.16,"Mozilla/5.0 (Macintosh; Intel Mac OS X 10_15_7) AppleWebKit/537.36 (KHTML, like Gecko) Chrome/123.0.0.0 Safari/537.36",Macintosh,Chrome,123.0.0.0,OS X,10_15_7,null,"en-US,en;q=0.9,fr;q=0.8",fpzo29,"[""exposure_4s_21.mp3""]",exposure,,exp_noresponse,,,,,,
1306,1,audio-button-response,17,10245,0.0-16.0-1.0,4,tonic G4,2024-04-29 16:00:06,70dd8527a7d03d02011aab09188cbbde,129.199.158.16,"Mozilla/5.0 (Macintosh; Intel Mac OS X 10_15_7) AppleWebKit/537.36 (KHTML, like Gecko) Chrome/123.0.0.0 Safari/537.36",Macintosh,Chrome,123.0.0.0,OS X,10_15_7,null,"en-US,en;q=0.9,fr;q=0.8",fpzo29,attn_length_hard_1.mp3,exposure,true,attncheck,,,,,,
697, ,audio-keyboard-response,18,11181,0.0-16.0-2.0,4,tonic G4,2024-04-29 16:00:06,70dd8527a7d03d02011aab09188cbbde,129.199.158.16,"Mozilla/5.0 (Macintosh; Intel Mac OS X 10_15_7) AppleWebKit/537.36 (KHTML, like Gecko) Chrome/123.0.0.0 Safari/537.36",Macintosh,Chrome,123.0.0.0,OS X,10_15_7,null,"en-US,en;q=0.9,fr;q=0.8",fpzo29,"[""exposure_4s_25.mp3""]",exposure,,exp_noresponse,,,,,,
888,4,audio-slider-response,19,12089,0.0-16.0-3.0,4,tonic G4,2024-04-29 16:00:06,70dd8527a7d03d02011aab09188cbbde,129.199.158.16,"Mozilla/5.0 (Macintosh; Intel Mac OS X 10_15_7) AppleWebKit/537.36 (KHTML, like Gecko) Chrome/123.0.0.0 Safari/537.36",Macintosh,Chrome,123.0.0.0,OS X,10_15_7,null,"en-US,en;q=0.9,fr;q=0.8",fpzo29,"[""grammatical_7.mp3""]",exposure,,exp_liking,4,,,,,
453, ,audio-keyboard-response,20,12802,0.0-16.0-4.0,4,tonic G4,2024-04-29 16:00:06,70dd8527a7d03d02011aab09188cbbde,129.199.158.16,"Mozilla/5.0 (Macintosh; Intel Mac OS X 10_15_7) AppleWebKit/537.36 (KHTML, like Gecko) Chrome/123.0.0.0 Safari/537.36",Macintosh,Chrome,123.0.0.0,OS X,10_15_7,null,"en-US,en;q=0.9,fr;q=0.8",fpzo29,"[""exposure_4s_38.mp3""]",exposure,,exp_noresponse,,,,,,
426, ,html-keyboard-response,21,13230,0.0-17.0,4,tonic G4,2024-04-29 16:00:06,70dd8527a7d03d02011aab09188cbbde,129.199.158.16,"Mozilla/5.0 (Macintosh; Intel Mac OS X 10_15_7) AppleWebKit/537.36 (KHTML, like Gecko) Chrome/123.0.0.0 Safari/537.36",Macintosh,Chrome,123.0.0.0,OS X,10_15_7,null,"en-US,en;q=0.9,fr;q=0.8",fpzo29,"<p>You will now be asked to judge how similar some melodies are to what you have
    just listened to. </p>
    <p><b>Press the space bar to continue.</b></p>",,,,,,,,,
380, ,html-keyboard-response,22,13612,0.0-18.0,4,tonic G4,2024-04-29 16:00:06,70dd8527a7d03d02011aab09188cbbde,129.199.158.16,"Mozilla/5.0 (Macintosh; Intel Mac OS X 10_15_7) AppleWebKit/537.36 (KHTML, like Gecko) Chrome/123.0.0.0 Safari/537.36",Macintosh,Chrome,123.0.0.0,OS X,10_15_7,null,"en-US,en;q=0.9,fr;q=0.8",fpzo29,"<p>The changes in the melodies are subtle. If you are not sure, go with your gut feeling.</p>
    <p><b>Press the space bar to continue.</b></p>",,,,,,,,,
644,4,audio-slider-response,23,14284,0.0-19.0-0.0,4,tonic G4,2024-04-29 16:00:06,70dd8527a7d03d02011aab09188cbbde,129.199.158.16,"Mozilla/5.0 (Macintosh; Intel Mac OS X 10_15_7) AppleWebKit/537.36 (KHTML, like Gecko) Chrome/123.0.0.0 Safari/537.36",Macintosh,Chrome,123.0.0.0,OS X,10_15_7,null,"en-US,en;q=0.9,fr;q=0.8",fpzo29,agrammatical_6.mp3,grammar_learning,,,4,,,,,
673,4,audio-slider-response,24,14980,0.0-19.0-0.1,4,tonic G4,2024-04-29 16:00:06,70dd8527a7d03d02011aab09188cbbde,129.199.158.16,"Mozilla/5.0 (Macintosh; Intel Mac OS X 10_15_7) AppleWebKit/537.36 (KHTML, like Gecko) Chrome/123.0.0.0 Safari/537.36",Macintosh,Chrome,123.0.0.0,OS X,10_15_7,null,"en-US,en;q=0.9,fr;q=0.8",fpzo29,grammatical_3.mp3,grammar_learning,,,4,,,,,
325,4,audio-slider-response,25,15329,0.0-19.0-0.2,4,tonic G4,2024-04-29 16:00:06,70dd8527a7d03d02011aab09188cbbde,129.199.158.16,"Mozilla/5.0 (Macintosh; Intel Mac OS X 10_15_7) AppleWebKit/537.36 (KHTML, like Gecko) Chrome/123.0.0.0 Safari/537.36",Macintosh,Chrome,123.0.0.0,OS X,10_15_7,null,"en-US,en;q=0.9,fr;q=0.8",fpzo29,agrammatical_5.mp3,grammar_learning,,,4,,,,,
279,4,audio-slider-response,26,15610,0.0-19.0-0.3,4,tonic G4,2024-04-29 16:00:06,70dd8527a7d03d02011aab09188cbbde,129.199.158.16,"Mozilla/5.0 (Macintosh; Intel Mac OS X 10_15_7) AppleWebKit/537.36 (KHTML, like Gecko) Chrome/123.0.0.0 Safari/537.36",Macintosh,Chrome,123.0.0.0,OS X,10_15_7,null,"en-US,en;q=0.9,fr;q=0.8",fpzo29,grammatical_7.mp3,grammar_learning,,,4,,,,,
116,4,audio-slider-response,27,15756,0.0-19.0-0.4,4,tonic G4,2024-04-29 16:00:06,70dd8527a7d03d02011aab09188cbbde,129.199.158.16,"Mozilla/5.0 (Macintosh; Intel Mac OS X 10_15_7) AppleWebKit/537.36 (KHTML, like Gecko) Chrome/123.0.0.0 Safari/537.36",Macintosh,Chrome,123.0.0.0,OS X,10_15_7,null,"en-US,en;q=0.9,fr;q=0.8",fpzo29,agrammatical_1.mp3,grammar_learning,,,4,,,,,
157,4,audio-slider-response,28,15941,0.0-19.0-0.5,4,tonic G4,2024-04-29 16:00:06,70dd8527a7d03d02011aab09188cbbde,129.199.158.16,"Mozilla/5.0 (Macintosh; Intel Mac OS X 10_15_7) AppleWebKit/537.36 (KHTML, like Gecko) Chrome/123.0.0.0 Safari/537.36",Macintosh,Chrome,123.0.0.0,OS X,10_15_7,null,"en-US,en;q=0.9,fr;q=0.8",fpzo29,agrammatical_8.mp3,grammar_learning,,,4,,,,,
128,4,audio-slider-response,29,16093,0.0-19.0-0.6,4,tonic G4,2024-04-29 16:00:06,70dd8527a7d03d02011aab09188cbbde,129.199.158.16,"Mozilla/5.0 (Macintosh; Intel Mac OS X 10_15_7) AppleWebKit/537.36 (KHTML, like Gecko) Chrome/123.0.0.0 Safari/537.36",Macintosh,Chrome,123.0.0.0,OS X,10_15_7,null,"en-US,en;q=0.9,fr;q=0.8",fpzo29,grammatical_2.mp3,grammar_learning,,,4,,,,,
186,4,audio-slider-response,30,16308,0.0-19.0-0.7,4,tonic G4,2024-04-29 16:00:06,70dd8527a7d03d02011aab09188cbbde,129.199.158.16,"Mozilla/5.0 (Macintosh; Intel Mac OS X 10_15_7) AppleWebKit/537.36 (KHTML, like Gecko) Chrome/123.0.0.0 Safari/537.36",Macintosh,Chrome,123.0.0.0,OS X,10_15_7,null,"en-US,en;q=0.9,fr;q=0.8",fpzo29,agrammatical_7.mp3,grammar_learning,,,4,,,,,
128,4,audio-slider-response,31,16462,0.0-19.0-0.8,4,tonic G4,2024-04-29 16:00:06,70dd8527a7d03d02011aab09188cbbde,129.199.158.16,"Mozilla/5.0 (Macintosh; Intel Mac OS X 10_15_7) AppleWebKit/537.36 (KHTML, like Gecko) Chrome/123.0.0.0 Safari/537.36",Macintosh,Chrome,123.0.0.0,OS X,10_15_7,null,"en-US,en;q=0.9,fr;q=0.8",fpzo29,grammatical_8.mp3,grammar_learning,,,4,,,,,
99,4,audio-slider-response,32,16576,0.0-19.0-0.9,4,tonic G4,2024-04-29 16:00:06,70dd8527a7d03d02011aab09188cbbde,129.199.158.16,"Mozilla/5.0 (Macintosh; Intel Mac OS X 10_15_7) AppleWebKit/537.36 (KHTML, like Gecko) Chrome/123.0.0.0 Safari/537.36",Macintosh,Chrome,123.0.0.0,OS X,10_15_7,null,"en-US,en;q=0.9,fr;q=0.8",fpzo29,agrammatical_2.mp3,grammar_learning,,,4,,,,,
134,4,audio-slider-response,33,16712,0.0-19.0-0.10,4,tonic G4,2024-04-29 16:00:06,70dd8527a7d03d02011aab09188cbbde,129.199.158.16,"Mozilla/5.0 (Macintosh; Intel Mac OS X 10_15_7) AppleWebKit/537.36 (KHTML, like Gecko) Chrome/123.0.0.0 Safari/537.36",Macintosh,Chrome,123.0.0.0,OS X,10_15_7,null,"en-US,en;q=0.9,fr;q=0.8",fpzo29,grammatical_1.mp3,grammar_learning,,,4,,,,,
209,4,audio-slider-response,34,16949,0.0-19.0-0.11,4,tonic G4,2024-04-29 16:00:06,70dd8527a7d03d02011aab09188cbbde,129.199.158.16,"Mozilla/5.0 (Macintosh; Intel Mac OS X 10_15_7) AppleWebKit/537.36 (KHTML, like Gecko) Chrome/123.0.0.0 Safari/537.36",Macintosh,Chrome,123.0.0.0,OS X,10_15_7,null,"en-US,en;q=0.9,fr;q=0.8",fpzo29,grammatical_6.mp3,grammar_learning,,,4,,,,,
134,4,audio-slider-response,35,17108,0.0-19.0-0.12,4,tonic G4,2024-04-29 16:00:06,70dd8527a7d03d02011aab09188cbbde,129.199.158.16,"Mozilla/5.0 (Macintosh; Intel Mac OS X 10_15_7) AppleWebKit/537.36 (KHTML, like Gecko) Chrome/123.0.0.0 Safari/537.36",Macintosh,Chrome,123.0.0.0,OS X,10_15_7,null,"en-US,en;q=0.9,fr;q=0.8",fpzo29,grammatical_5.mp3,grammar_learning,,,4,,,,,
70,4,audio-slider-response,36,17204,0.0-19.0-0.13,4,tonic G4,2024-04-29 16:00:06,70dd8527a7d03d02011aab09188cbbde,129.199.158.16,"Mozilla/5.0 (Macintosh; Intel Mac OS X 10_15_7) AppleWebKit/537.36 (KHTML, like Gecko) Chrome/123.0.0.0 Safari/537.36",Macintosh,Chrome,123.0.0.0,OS X,10_15_7,null,"en-US,en;q=0.9,fr;q=0.8",fpzo29,grammatical_4.mp3,grammar_learning,,,4,,,,,
232,4,audio-slider-response,37,17456,0.0-19.0-0.14,4,tonic G4,2024-04-29 16:00:06,70dd8527a7d03d02011aab09188cbbde,129.199.158.16,"Mozilla/5.0 (Macintosh; Intel Mac OS X 10_15_7) AppleWebKit/537.36 (KHTML, like Gecko) Chrome/123.0.0.0 Safari/537.36",Macintosh,Chrome,123.0.0.0,OS X,10_15_7,null,"en-US,en;q=0.9,fr;q=0.8",fpzo29,agrammatical_4.mp3,grammar_learning,,,4,,,,,
99,4,audio-slider-response,38,17578,0.0-19.0-0.15,4,tonic G4,2024-04-29 16:00:06,70dd8527a7d03d02011aab09188cbbde,129.199.158.16,"Mozilla/5.0 (Macintosh; Intel Mac OS X 10_15_7) AppleWebKit/537.36 (KHTML, like Gecko) Chrome/123.0.0.0 Safari/537.36",Macintosh,Chrome,123.0.0.0,OS X,10_15_7,null,"en-US,en;q=0.9,fr;q=0.8",fpzo29,agrammatical_3.mp3,grammar_learning,,,4,,,,,
698,"{""prolific_id"":""""}",survey-html-form,39,18278,0.0-20.0,4,tonic G4,2024-04-29 16:00:06,70dd8527a7d03d02011aab09188cbbde,129.199.158.16,"Mozilla/5.0 (Macintosh; Intel Mac OS X 10_15_7) AppleWebKit/537.36 (KHTML, like Gecko) Chrome/123.0.0.0 Safari/537.36",Macintosh,Chrome,123.0.0.0,OS X,10_15_7,null,"en-US,en;q=0.9,fr;q=0.8",fpzo29,,,,,,,,,,
2040, ,html-keyboard-response,40,20319,0.0-21.0,4,tonic G4,2024-04-29 16:00:06,70dd8527a7d03d02011aab09188cbbde,129.199.158.16,"Mozilla/5.0 (Macintosh; Intel Mac OS X 10_15_7) AppleWebKit/537.36 (KHTML, like Gecko) Chrome/123.0.0.0 Safari/537.36",Macintosh,Chrome,123.0.0.0,OS X,10_15_7,null,"en-US,en;q=0.9,fr;q=0.8",fpzo29,"<p>In this part of the experiment, you will presented with two melodies in succession. 
    <p><b>Press the space bar to continue.</b></p>",,,,,,,,,
400, ,html-keyboard-response,41,20720,0.0-22.0,4,tonic G4,2024-04-29 16:00:06,70dd8527a7d03d02011aab09188cbbde,129.199.158.16,"Mozilla/5.0 (Macintosh; Intel Mac OS X 10_15_7) AppleWebKit/537.36 (KHTML, like Gecko) Chrome/123.0.0.0 Safari/537.36",Macintosh,Chrome,123.0.0.0,OS X,10_15_7,null,"en-US,en;q=0.9,fr;q=0.8",fpzo29,"<p>The melodies are nearly identical, but have either an added accent or one different note. </p>
    <p><b>Press the space bar to continue.</b></p>",,,,,,,,,
290, ,html-keyboard-response,42,21011,0.0-23.0,4,tonic G4,2024-04-29 16:00:06,70dd8527a7d03d02011aab09188cbbde,129.199.158.16,"Mozilla/5.0 (Macintosh; Intel Mac OS X 10_15_7) AppleWebKit/537.36 (KHTML, like Gecko) Chrome/123.0.0.0 Safari/537.36",Macintosh,Chrome,123.0.0.0,OS X,10_15_7,null,"en-US,en;q=0.9,fr;q=0.8",fpzo29,"<p>    Please choose the melody that <b>sounds better to you.</b></p>
    <p><b>Press the space bar to continue.</b></p>",,,,,,,,,
496, ,html-keyboard-response,43,21509,0.0-24.0,4,tonic G4,2024-04-29 16:00:06,70dd8527a7d03d02011aab09188cbbde,129.199.158.16,"Mozilla/5.0 (Macintosh; Intel Mac OS X 10_15_7) AppleWebKit/537.36 (KHTML, like Gecko) Chrome/123.0.0.0 Safari/537.36",Macintosh,Chrome,123.0.0.0,OS X,10_15_7,null,"en-US,en;q=0.9,fr;q=0.8",fpzo29,There are <b>32 questions</b> in this section.,,,,,,,,,
1776,f,audio-keyboard-response,44,23309,0.0-25.0-0.0,4,tonic G4,2024-04-29 16:00:06,70dd8527a7d03d02011aab09188cbbde,129.199.158.16,"Mozilla/5.0 (Macintosh; Intel Mac OS X 10_15_7) AppleWebKit/537.36 (KHTML, like Gecko) Chrome/123.0.0.0 Safari/537.36",Macintosh,Chrome,123.0.0.0,OS X,10_15_7,null,"en-US,en;q=0.9,fr;q=0.8",fpzo29,fc_IC_accent_3_2.mp3,forced_choice,,,,NA,f,false,true,
58,j,audio-keyboard-response,45,23398,0.0-25.0-0.1,4,tonic G4,2024-04-29 16:00:06,70dd8527a7d03d02011aab09188cbbde,129.199.158.16,"Mozilla/5.0 (Macintosh; Intel Mac OS X 10_15_7) AppleWebKit/537.36 (KHTML, like Gecko) Chrome/123.0.0.0 Safari/537.36",Macintosh,Chrome,123.0.0.0,OS X,10_15_7,null,"en-US,en;q=0.9,fr;q=0.8",fpzo29,fc_accents_56_2.mp3,forced_choice,,,,j,NA,true,false,
99,f,audio-keyboard-response,46,23514,0.0-25.0-0.2,4,tonic G4,2024-04-29 16:00:06,70dd8527a7d03d02011aab09188cbbde,129.199.158.16,"Mozilla/5.0 (Macintosh; Intel Mac OS X 10_15_7) AppleWebKit/537.36 (KHTML, like Gecko) Chrome/123.0.0.0 Safari/537.36",Macintosh,Chrome,123.0.0.0,OS X,10_15_7,null,"en-US,en;q=0.9,fr;q=0.8",fpzo29,fc_IC_accent_5_3.mp3,forced_choice,,,,NA,j,false,false,
70,j,audio-keyboard-response,47,23601,0.0-25.0-0.3,4,tonic G4,2024-04-29 16:00:06,70dd8527a7d03d02011aab09188cbbde,129.199.158.16,"Mozilla/5.0 (Macintosh; Intel Mac OS X 10_15_7) AppleWebKit/537.36 (KHTML, like Gecko) Chrome/123.0.0.0 Safari/537.36",Macintosh,Chrome,123.0.0.0,OS X,10_15_7,null,"en-US,en;q=0.9,fr;q=0.8",fpzo29,fc_IC_default_5_1.mp3,forced_choice,,,,NA,j,false,true,
64,f,audio-keyboard-response,48,23689,0.0-25.0-0.4,4,tonic G4,2024-04-29 16:00:06,70dd8527a7d03d02011aab09188cbbde,129.199.158.16,"Mozilla/5.0 (Macintosh; Intel Mac OS X 10_15_7) AppleWebKit/537.36 (KHTML, like Gecko) Chrome/123.0.0.0 Safari/537.36",Macintosh,Chrome,123.0.0.0,OS X,10_15_7,null,"en-US,en;q=0.9,fr;q=0.8",fpzo29,fc_IC_default_3_1.mp3,forced_choice,,,,NA,f,false,true,
70,j,audio-keyboard-response,49,23780,0.0-25.0-0.5,4,tonic G4,2024-04-29 16:00:06,70dd8527a7d03d02011aab09188cbbde,129.199.158.16,"Mozilla/5.0 (Macintosh; Intel Mac OS X 10_15_7) AppleWebKit/537.36 (KHTML, like Gecko) Chrome/123.0.0.0 Safari/537.36",Macintosh,Chrome,123.0.0.0,OS X,10_15_7,null,"en-US,en;q=0.9,fr;q=0.8",fpzo29,fc_accents_34_3.mp3,forced_choice,,,,j,NA,true,false,
46,f,audio-keyboard-response,50,23848,0.0-25.0-0.6,4,tonic G4,2024-04-29 16:00:06,70dd8527a7d03d02011aab09188cbbde,129.199.158.16,"Mozilla/5.0 (Macintosh; Intel Mac OS X 10_15_7) AppleWebKit/537.36 (KHTML, like Gecko) Chrome/123.0.0.0 Safari/537.36",Macintosh,Chrome,123.0.0.0,OS X,10_15_7,null,"en-US,en;q=0.9,fr;q=0.8",fpzo29,fc_accents_32_4.mp3,forced_choice,,,,j,NA,false,false,
75,j,audio-keyboard-response,51,23937,0.0-25.0-0.7,4,tonic G4,2024-04-29 16:00:06,70dd8527a7d03d02011aab09188cbbde,129.199.158.16,"Mozilla/5.0 (Macintosh; Intel Mac OS X 10_15_7) AppleWebKit/537.36 (KHTML, like Gecko) Chrome/123.0.0.0 Safari/537.36",Macintosh,Chrome,123.0.0.0,OS X,10_15_7,null,"en-US,en;q=0.9,fr;q=0.8",fpzo29,fc_accents_56_1.mp3,forced_choice,,,,j,NA,true,false,
139,j,audio-keyboard-response,52,24095,0.0-25.0-0.8,4,tonic G4,2024-04-29 16:00:06,70dd8527a7d03d02011aab09188cbbde,129.199.158.16,"Mozilla/5.0 (Macintosh; Intel Mac OS X 10_15_7) AppleWebKit/537.36 (KHTML, like Gecko) Chrome/123.0.0.0 Safari/537.36",Macintosh,Chrome,123.0.0.0,OS X,10_15_7,null,"en-US,en;q=0.9,fr;q=0.8",fpzo29,fc_accents_54_2.mp3,forced_choice,,,,j,NA,true,false,
64,f,audio-keyboard-response,53,24187,0.0-25.0-0.9,4,tonic G4,2024-04-29 16:00:06,70dd8527a7d03d02011aab09188cbbde,129.199.158.16,"Mozilla/5.0 (Macintosh; Intel Mac OS X 10_15_7) AppleWebKit/537.36 (KHTML, like Gecko) Chrome/123.0.0.0 Safari/537.36",Macintosh,Chrome,123.0.0.0,OS X,10_15_7,null,"en-US,en;q=0.9,fr;q=0.8",fpzo29,fc_accents_34_1.mp3,forced_choice,,,,j,NA,false,false,
70,j,audio-keyboard-response,54,24260,0.0-25.0-0.10,4,tonic G4,2024-04-29 16:00:06,70dd8527a7d03d02011aab09188cbbde,129.199.158.16,"Mozilla/5.0 (Macintosh; Intel Mac OS X 10_15_7) AppleWebKit/537.36 (KHTML, like Gecko) Chrome/123.0.0.0 Safari/537.36",Macintosh,Chrome,123.0.0.0,OS X,10_15_7,null,"en-US,en;q=0.9,fr;q=0.8",fpzo29,fc_accents_54_4.mp3,forced_choice,,,,j,NA,true,false,
35,f,audio-keyboard-response,55,24323,0.0-25.0-0.11,4,tonic G4,2024-04-29 16:00:06,70dd8527a7d03d02011aab09188cbbde,129.199.158.16,"Mozilla/5.0 (Macintosh; Intel Mac OS X 10_15_7) AppleWebKit/537.36 (KHTML, like Gecko) Chrome/123.0.0.0 Safari/537.36",Macintosh,Chrome,123.0.0.0,OS X,10_15_7,null,"en-US,en;q=0.9,fr;q=0.8",fpzo29,fc_IC_accent_5_4.mp3,forced_choice,,,,NA,j,false,false,
99,j,audio-keyboard-response,56,24435,0.0-25.0-0.12,4,tonic G4,2024-04-29 16:00:06,70dd8527a7d03d02011aab09188cbbde,129.199.158.16,"Mozilla/5.0 (Macintosh; Intel Mac OS X 10_15_7) AppleWebKit/537.36 (KHTML, like Gecko) Chrome/123.0.0.0 Safari/537.36",Macintosh,Chrome,123.0.0.0,OS X,10_15_7,null,"en-US,en;q=0.9,fr;q=0.8",fpzo29,fc_IC_accent_3_1.mp3,forced_choice,,,,NA,f,false,false,
17,f,audio-keyboard-response,57,24475,0.0-25.0-0.13,4,tonic G4,2024-04-29 16:00:06,70dd8527a7d03d02011aab09188cbbde,129.199.158.16,"Mozilla/5.0 (Macintosh; Intel Mac OS X 10_15_7) AppleWebKit/537.36 (KHTML, like Gecko) Chrome/123.0.0.0 Safari/537.36",Macintosh,Chrome,123.0.0.0,OS X,10_15_7,null,"en-US,en;q=0.9,fr;q=0.8",fpzo29,fc_accents_32_3.mp3,forced_choice,,,,j,NA,false,false,
110,j,audio-keyboard-response,58,24590,0.0-25.0-0.14,4,tonic G4,2024-04-29 16:00:06,70dd8527a7d03d02011aab09188cbbde,129.199.158.16,"Mozilla/5.0 (Macintosh; Intel Mac OS X 10_15_7) AppleWebKit/537.36 (KHTML, like Gecko) Chrome/123.0.0.0 Safari/537.36",Macintosh,Chrome,123.0.0.0,OS X,10_15_7,null,"en-US,en;q=0.9,fr;q=0.8",fpzo29,fc_accents_56_4.mp3,forced_choice,,,,j,NA,true,false,
64,f,audio-keyboard-response,59,24680,0.0-25.0-0.15,4,tonic G4,2024-04-29 16:00:06,70dd8527a7d03d02011aab09188cbbde,129.199.158.16,"Mozilla/5.0 (Macintosh; Intel Mac OS X 10_15_7) AppleWebKit/537.36 (KHTML, like Gecko) Chrome/123.0.0.0 Safari/537.36",Macintosh,Chrome,123.0.0.0,OS X,10_15_7,null,"en-US,en;q=0.9,fr;q=0.8",fpzo29,fc_IC_default_3_2.mp3,forced_choice,,,,NA,f,false,true,
93,j,audio-keyboard-response,60,24793,0.0-25.0-0.16,4,tonic G4,2024-04-29 16:00:06,70dd8527a7d03d02011aab09188cbbde,129.199.158.16,"Mozilla/5.0 (Macintosh; Intel Mac OS X 10_15_7) AppleWebKit/537.36 (KHTML, like Gecko) Chrome/123.0.0.0 Safari/537.36",Macintosh,Chrome,123.0.0.0,OS X,10_15_7,null,"en-US,en;q=0.9,fr;q=0.8",fpzo29,fc_accents_34_2.mp3,forced_choice,,,,j,NA,true,false,
87,f,audio-keyboard-response,61,24905,0.0-25.0-0.17,4,tonic G4,2024-04-29 16:00:06,70dd8527a7d03d02011aab09188cbbde,129.199.158.16,"Mozilla/5.0 (Macintosh; Intel Mac OS X 10_15_7) AppleWebKit/537.36 (KHTML, like Gecko) Chrome/123.0.0.0 Safari/537.36",Macintosh,Chrome,123.0.0.0,OS X,10_15_7,null,"en-US,en;q=0.9,fr;q=0.8",fpzo29,fc_IC_accent_3_4.mp3,forced_choice,,,,NA,f,false,true,
163,j,audio-keyboard-response,62,25087,0.0-25.0-0.18,4,tonic G4,2024-04-29 16:00:06,70dd8527a7d03d02011aab09188cbbde,129.199.158.16,"Mozilla/5.0 (Macintosh; Intel Mac OS X 10_15_7) AppleWebKit/537.36 (KHTML, like Gecko) Chrome/123.0.0.0 Safari/537.36",Macintosh,Chrome,123.0.0.0,OS X,10_15_7,null,"en-US,en;q=0.9,fr;q=0.8",fpzo29,fc_accents_56_3.mp3,forced_choice,,,,j,NA,true,false,
174,j,audio-keyboard-response,63,25290,0.0-25.0-0.19,4,tonic G4,2024-04-29 16:00:06,70dd8527a7d03d02011aab09188cbbde,129.199.158.16,"Mozilla/5.0 (Macintosh; Intel Mac OS X 10_15_7) AppleWebKit/537.36 (KHTML, like Gecko) Chrome/123.0.0.0 Safari/537.36",Macintosh,Chrome,123.0.0.0,OS X,10_15_7,null,"en-US,en;q=0.9,fr;q=0.8",fpzo29,fc_IC_accent_5_2.mp3,forced_choice,,,,NA,j,false,true,
58,f,audio-keyboard-response,64,25376,0.0-25.0-0.20,4,tonic G4,2024-04-29 16:00:06,70dd8527a7d03d02011aab09188cbbde,129.199.158.16,"Mozilla/5.0 (Macintosh; Intel Mac OS X 10_15_7) AppleWebKit/537.36 (KHTML, like Gecko) Chrome/123.0.0.0 Safari/537.36",Macintosh,Chrome,123.0.0.0,OS X,10_15_7,null,"en-US,en;q=0.9,fr;q=0.8",fpzo29,fc_IC_default_5_4.mp3,forced_choice,,,,NA,j,false,false,
110,j,audio-keyboard-response,65,25513,0.0-25.0-0.21,4,tonic G4,2024-04-29 16:00:06,70dd8527a7d03d02011aab09188cbbde,129.199.158.16,"Mozilla/5.0 (Macintosh; Intel Mac OS X 10_15_7) AppleWebKit/537.36 (KHTML, like Gecko) Chrome/123.0.0.0 Safari/537.36",Macintosh,Chrome,123.0.0.0,OS X,10_15_7,null,"en-US,en;q=0.9,fr;q=0.8",fpzo29,fc_accents_32_2.mp3,forced_choice,,,,j,NA,true,false,
64,f,audio-keyboard-response,66,25603,0.0-25.0-0.22,4,tonic G4,2024-04-29 16:00:06,70dd8527a7d03d02011aab09188cbbde,129.199.158.16,"Mozilla/5.0 (Macintosh; Intel Mac OS X 10_15_7) AppleWebKit/537.36 (KHTML, like Gecko) Chrome/123.0.0.0 Safari/537.36",Macintosh,Chrome,123.0.0.0,OS X,10_15_7,null,"en-US,en;q=0.9,fr;q=0.8",fpzo29,fc_IC_default_3_3.mp3,forced_choice,,,,NA,f,false,true,
70,j,audio-keyboard-response,67,25691,0.0-25.0-0.23,4,tonic G4,2024-04-29 16:00:06,70dd8527a7d03d02011aab09188cbbde,129.199.158.16,"Mozilla/5.0 (Macintosh; Intel Mac OS X 10_15_7) AppleWebKit/537.36 (KHTML, like Gecko) Chrome/123.0.0.0 Safari/537.36",Macintosh,Chrome,123.0.0.0,OS X,10_15_7,null,"en-US,en;q=0.9,fr;q=0.8",fpzo29,fc_IC_accent_3_3.mp3,forced_choice,,,,NA,f,false,false,
52,f,audio-keyboard-response,68,25759,0.0-25.0-0.24,4,tonic G4,2024-04-29 16:00:06,70dd8527a7d03d02011aab09188cbbde,129.199.158.16,"Mozilla/5.0 (Macintosh; Intel Mac OS X 10_15_7) AppleWebKit/537.36 (KHTML, like Gecko) Chrome/123.0.0.0 Safari/537.36",Macintosh,Chrome,123.0.0.0,OS X,10_15_7,null,"en-US,en;q=0.9,fr;q=0.8",fpzo29,fc_accents_54_1.mp3,forced_choice,,,,j,NA,false,false,
99,j,audio-keyboard-response,69,25876,0.0-25.0-0.25,4,tonic G4,2024-04-29 16:00:06,70dd8527a7d03d02011aab09188cbbde,129.199.158.16,"Mozilla/5.0 (Macintosh; Intel Mac OS X 10_15_7) AppleWebKit/537.36 (KHTML, like Gecko) Chrome/123.0.0.0 Safari/537.36",Macintosh,Chrome,123.0.0.0,OS X,10_15_7,null,"en-US,en;q=0.9,fr;q=0.8",fpzo29,fc_IC_accent_5_1.mp3,forced_choice,,,,NA,j,false,true,
41,f,audio-keyboard-response,70,25940,0.0-25.0-0.26,4,tonic G4,2024-04-29 16:00:06,70dd8527a7d03d02011aab09188cbbde,129.199.158.16,"Mozilla/5.0 (Macintosh; Intel Mac OS X 10_15_7) AppleWebKit/537.36 (KHTML, like Gecko) Chrome/123.0.0.0 Safari/537.36",Macintosh,Chrome,123.0.0.0,OS X,10_15_7,null,"en-US,en;q=0.9,fr;q=0.8",fpzo29,fc_IC_default_3_4.mp3,forced_choice,,,,NA,f,false,true,
99,j,audio-keyboard-response,71,26056,0.0-25.0-0.27,4,tonic G4,2024-04-29 16:00:06,70dd8527a7d03d02011aab09188cbbde,129.199.158.16,"Mozilla/5.0 (Macintosh; Intel Mac OS X 10_15_7) AppleWebKit/537.36 (KHTML, like Gecko) Chrome/123.0.0.0 Safari/537.36",Macintosh,Chrome,123.0.0.0,OS X,10_15_7,null,"en-US,en;q=0.9,fr;q=0.8",fpzo29,fc_IC_default_5_3.mp3,forced_choice,,,,NA,j,false,true,
46,f,audio-keyboard-response,72,26120,0.0-25.0-0.28,4,tonic G4,2024-04-29 16:00:06,70dd8527a7d03d02011aab09188cbbde,129.199.158.16,"Mozilla/5.0 (Macintosh; Intel Mac OS X 10_15_7) AppleWebKit/537.36 (KHTML, like Gecko) Chrome/123.0.0.0 Safari/537.36",Macintosh,Chrome,123.0.0.0,OS X,10_15_7,null,"en-US,en;q=0.9,fr;q=0.8",fpzo29,fc_IC_default_5_2.mp3,forced_choice,,,,NA,j,false,false,
110,j,audio-keyboard-response,73,26234,0.0-25.0-0.29,4,tonic G4,2024-04-29 16:00:06,70dd8527a7d03d02011aab09188cbbde,129.199.158.16,"Mozilla/5.0 (Macintosh; Intel Mac OS X 10_15_7) AppleWebKit/537.36 (KHTML, like Gecko) Chrome/123.0.0.0 Safari/537.36",Macintosh,Chrome,123.0.0.0,OS X,10_15_7,null,"en-US,en;q=0.9,fr;q=0.8",fpzo29,fc_accents_32_1.mp3,forced_choice,,,,j,NA,true,false,
64,f,audio-keyboard-response,74,26323,0.0-25.0-0.30,4,tonic G4,2024-04-29 16:00:06,70dd8527a7d03d02011aab09188cbbde,129.199.158.16,"Mozilla/5.0 (Macintosh; Intel Mac OS X 10_15_7) AppleWebKit/537.36 (KHTML, like Gecko) Chrome/123.0.0.0 Safari/537.36",Macintosh,Chrome,123.0.0.0,OS X,10_15_7,null,"en-US,en;q=0.9,fr;q=0.8",fpzo29,fc_accents_34_4.mp3,forced_choice,,,,j,NA,false,false,
64,j,audio-keyboard-response,75,26413,0.0-25.0-0.31,4,tonic G4,2024-04-29 16:00:06,70dd8527a7d03d02011aab09188cbbde,129.199.158.16,"Mozilla/5.0 (Macintosh; Intel Mac OS X 10_15_7) AppleWebKit/537.36 (KHTML, like Gecko) Chrome/123.0.0.0 Safari/537.36",Macintosh,Chrome,123.0.0.0,OS X,10_15_7,null,"en-US,en;q=0.9,fr;q=0.8",fpzo29,fc_accents_54_3.mp3,forced_choice,,,,j,NA,true,false,
654, ,html-keyboard-response,76,27069,0.0-26.0,4,tonic G4,2024-04-29 16:00:06,70dd8527a7d03d02011aab09188cbbde,129.199.158.16,"Mozilla/5.0 (Macintosh; Intel Mac OS X 10_15_7) AppleWebKit/537.36 (KHTML, like Gecko) Chrome/123.0.0.0 Safari/537.36",Macintosh,Chrome,123.0.0.0,OS X,10_15_7,null,"en-US,en;q=0.9,fr;q=0.8",fpzo29,"<p>You have completed all the listening in this experiment. The remaining questions about your background
          will help us better understand your responses. You can skip any question that you do not wish to answer. </p>
          <p> <b> Press the space bar to continue. </b></p>",,,,,,,,,
2979,"{""HeadphoneUse"":""Yes, I used earbuds""}",survey-multi-choice,77,30052,0.0-27.0,4,tonic G4,2024-04-29 16:00:06,70dd8527a7d03d02011aab09188cbbde,129.199.158.16,"Mozilla/5.0 (Macintosh; Intel Mac OS X 10_15_7) AppleWebKit/537.36 (KHTML, like Gecko) Chrome/123.0.0.0 Safari/537.36",Macintosh,Chrome,123.0.0.0,OS X,10_15_7,null,"en-US,en;q=0.9,fr;q=0.8",fpzo29,,survey,,,,,,,,[0]
4389,"{""age"":""1234"",""country"":""sfdg"",""language"":""sdfg""}",survey-html-form,78,34445,0.0-28.0,4,tonic G4,2024-04-29 16:00:06,70dd8527a7d03d02011aab09188cbbde,129.199.158.16,"Mozilla/5.0 (Macintosh; Intel Mac OS X 10_15_7) AppleWebKit/537.36 (KHTML, like Gecko) Chrome/123.0.0.0 Safari/537.36",Macintosh,Chrome,123.0.0.0,OS X,10_15_7,null,"en-US,en;q=0.9,fr;q=0.8",fpzo29,,survey,,,,,,,,
1359,"{""Gender"":""Male""}",survey-multi-choice,79,35807,0.0-29.0,4,tonic G4,2024-04-29 16:00:06,70dd8527a7d03d02011aab09188cbbde,129.199.158.16,"Mozilla/5.0 (Macintosh; Intel Mac OS X 10_15_7) AppleWebKit/537.36 (KHTML, like Gecko) Chrome/123.0.0.0 Safari/537.36",Macintosh,Chrome,123.0.0.0,OS X,10_15_7,null,"en-US,en;q=0.9,fr;q=0.8",fpzo29,,survey,,,,,,,,[0]
1214,"{""Colors"":[""Classical""]}",survey-multi-select,80,37030,0.0-30.0,4,tonic G4,2024-04-29 16:00:06,70dd8527a7d03d02011aab09188cbbde,129.199.158.16,"Mozilla/5.0 (Macintosh; Intel Mac OS X 10_15_7) AppleWebKit/537.36 (KHTML, like Gecko) Chrome/123.0.0.0 Safari/537.36",Macintosh,Chrome,123.0.0.0,OS X,10_15_7,null,"en-US,en;q=0.9,fr;q=0.8",fpzo29,,,,,,,,,,[0]
3247,"{""HearingImpairment"":""I'm not sure"",""PerfectPitch"":""I'm not sure"",""Singing"":""No""}",survey-multi-choice,81,40281,0.0-31.0,4,tonic G4,2024-04-29 16:00:06,70dd8527a7d03d02011aab09188cbbde,129.199.158.16,"Mozilla/5.0 (Macintosh; Intel Mac OS X 10_15_7) AppleWebKit/537.36 (KHTML, like Gecko) Chrome/123.0.0.0 Safari/537.36",Macintosh,Chrome,123.0.0.0,OS X,10_15_7,null,"en-US,en;q=0.9,fr;q=0.8",fpzo29,,survey,,,,,,,,"[0,1,2]"
5363,"{""PracticeHours"":""30 minutes-1 hour"",""TrainingYears"":""None at all"",""TrainingType"":""I taught myself"",""Expertise"":""Beginner"",""NonWesternTraining"":""Yes""}",survey-multi-choice,82,45649,0.0-32.0,4,tonic G4,2024-04-29 16:00:06,70dd8527a7d03d02011aab09188cbbde,129.199.158.16,"Mozilla/5.0 (Macintosh; Intel Mac OS X 10_15_7) AppleWebKit/537.36 (KHTML, like Gecko) Chrome/123.0.0.0 Safari/537.36",Macintosh,Chrome,123.0.0.0,OS X,10_15_7,null,"en-US,en;q=0.9,fr;q=0.8",fpzo29,,survey,,,,,,,,"[0,1,2,3,4]"
1580,"{""TrainingStart"":""I did not have any formal training""}",survey-multi-choice,83,47234,0.0-33.0,4,tonic G4,2024-04-29 16:00:06,70dd8527a7d03d02011aab09188cbbde,129.199.158.16,"Mozilla/5.0 (Macintosh; Intel Mac OS X 10_15_7) AppleWebKit/537.36 (KHTML, like Gecko) Chrome/123.0.0.0 Safari/537.36",Macintosh,Chrome,123.0.0.0,OS X,10_15_7,null,"en-US,en;q=0.9,fr;q=0.8",fpzo29,,survey,,,,,,,,[0]
1051,0,html-button-response,84,48292,0.0-34.0,4,tonic G4,2024-04-29 16:00:06,70dd8527a7d03d02011aab09188cbbde,129.199.158.16,"Mozilla/5.0 (Macintosh; Intel Mac OS X 10_15_7) AppleWebKit/537.36 (KHTML, like Gecko) Chrome/123.0.0.0 Safari/537.36",Macintosh,Chrome,123.0.0.0,OS X,10_15_7,null,"en-US,en;q=0.9,fr;q=0.8",fpzo29,"You have reached the end of the experiment. Your completion code is <b>C1AWH3EX</b>.
    <p>For questions or concerns, please write to <b>haiqin.zhang@ens.psl.eu.</b></p>
    Thank you for your participation!
  ",,,,,,,,,
1154,"{""prolific_id"":""""}",survey-html-form,0,1155,0.0-0.0,2,tonic G4,2024-04-29 15:55:45,70dd8527a7d03d02011aab09188cbbde,129.199.158.16,"Mozilla/5.0 (Macintosh; Intel Mac OS X 10_15_7) AppleWebKit/537.36 (KHTML, like Gecko) Chrome/123.0.0.0 Safari/537.36",Macintosh,Chrome,123.0.0.0,OS X,10_15_7,null,"en-US,en;q=0.9,fr;q=0.8",a733u1,,,,,,,,,,
887, ,html-keyboard-response,1,2044,0.0-1.0,2,tonic G4,2024-04-29 15:55:45,70dd8527a7d03d02011aab09188cbbde,129.199.158.16,"Mozilla/5.0 (Macintosh; Intel Mac OS X 10_15_7) AppleWebKit/537.36 (KHTML, like Gecko) Chrome/123.0.0.0 Safari/537.36",Macintosh,Chrome,123.0.0.0,OS X,10_15_7,null,"en-US,en;q=0.9,fr;q=0.8",a733u1,"
    <p>Please complete the experiment in a quiet place.
      We highly recommend using headphones.</p>

    </p align = 'justify'> <b>Press the space bar to proceed.</b> </p>",,,,,,,,,
378, ,html-keyboard-response,2,2423,0.0-2.0,2,tonic G4,2024-04-29 15:55:45,70dd8527a7d03d02011aab09188cbbde,129.199.158.16,"Mozilla/5.0 (Macintosh; Intel Mac OS X 10_15_7) AppleWebKit/537.36 (KHTML, like Gecko) Chrome/123.0.0.0 Safari/537.36",Macintosh,Chrome,123.0.0.0,OS X,10_15_7,null,"en-US,en;q=0.9,fr;q=0.8",a733u1,"
    <p>A series of soundchecks will now be played to help you adjust the volume
      to a comfortable level. </p>

    </p align = 'justify'> <b>Press the space bar to proceed.</b> </p>",,,,,,,,,
650,1,audio-button-response,3,3116,0.0-3.0-0.0,2,tonic G4,2024-04-29 15:55:45,70dd8527a7d03d02011aab09188cbbde,129.199.158.16,"Mozilla/5.0 (Macintosh; Intel Mac OS X 10_15_7) AppleWebKit/537.36 (KHTML, like Gecko) Chrome/123.0.0.0 Safari/537.36",Macintosh,Chrome,123.0.0.0,OS X,10_15_7,null,"en-US,en;q=0.9,fr;q=0.8",a733u1,grammatical_1.mp3,,,,,,,,,
449, ,html-keyboard-response,4,3566,0.0-4.0,2,tonic G4,2024-04-29 15:55:45,70dd8527a7d03d02011aab09188cbbde,129.199.158.16,"Mozilla/5.0 (Macintosh; Intel Mac OS X 10_15_7) AppleWebKit/537.36 (KHTML, like Gecko) Chrome/123.0.0.0 Safari/537.36",Macintosh,Chrome,123.0.0.0,OS X,10_15_7,null,"en-US,en;q=0.9,fr;q=0.8",a733u1,"<p width = 300 px>
    You will now hear two melodies in succession. 
    The notes in each melody are the same, but there is an accent on one note for one of the melodies. 
    <b>Listen for which melody has the accent.</b>
    </p>
    
    Press the space bar to continue.",,,,,,,,,
473, ,html-keyboard-response,5,4040,0.0-5.0,2,tonic G4,2024-04-29 15:55:45,70dd8527a7d03d02011aab09188cbbde,129.199.158.16,"Mozilla/5.0 (Macintosh; Intel Mac OS X 10_15_7) AppleWebKit/537.36 (KHTML, like Gecko) Chrome/123.0.0.0 Safari/537.36",Macintosh,Chrome,123.0.0.0,OS X,10_15_7,null,"en-US,en;q=0.9,fr;q=0.8",a733u1,"<p width = 300 px>
    <b>You must score at least 2/3 to proceed with the experiment.</b>
    </p>
    
    Press the space bar to continue.",,,,,,,,,
604,1,audio-button-response,6,4677,0.0-6.0,2,tonic G4,2024-04-29 15:55:45,70dd8527a7d03d02011aab09188cbbde,129.199.158.16,"Mozilla/5.0 (Macintosh; Intel Mac OS X 10_15_7) AppleWebKit/537.36 (KHTML, like Gecko) Chrome/123.0.0.0 Safari/537.36",Macintosh,Chrome,123.0.0.0,OS X,10_15_7,null,"en-US,en;q=0.9,fr;q=0.8",a733u1,fc_accents_32_1.mp3,soundcheck,true,,,,,,,
103, ,html-keyboard-response,7,4781,0.0-7.0,2,tonic G4,2024-04-29 15:55:45,70dd8527a7d03d02011aab09188cbbde,129.199.158.16,"Mozilla/5.0 (Macintosh; Intel Mac OS X 10_15_7) AppleWebKit/537.36 (KHTML, like Gecko) Chrome/123.0.0.0 Safari/537.36",Macintosh,Chrome,123.0.0.0,OS X,10_15_7,null,"en-US,en;q=0.9,fr;q=0.8",a733u1,<p>Correct!</p> Press the space bar to continue.,,,,,,,,,
621,1,audio-button-response,8,5433,0.0-8.0,2,tonic G4,2024-04-29 15:55:45,70dd8527a7d03d02011aab09188cbbde,129.199.158.16,"Mozilla/5.0 (Macintosh; Intel Mac OS X 10_15_7) AppleWebKit/537.36 (KHTML, like Gecko) Chrome/123.0.0.0 Safari/537.36",Macintosh,Chrome,123.0.0.0,OS X,10_15_7,null,"en-US,en;q=0.9,fr;q=0.8",a733u1,fc_accents_56_4.mp3,soundcheck,true,,,,,,,
136, ,html-keyboard-response,9,5571,0.0-9.0,2,tonic G4,2024-04-29 15:55:45,70dd8527a7d03d02011aab09188cbbde,129.199.158.16,"Mozilla/5.0 (Macintosh; Intel Mac OS X 10_15_7) AppleWebKit/537.36 (KHTML, like Gecko) Chrome/123.0.0.0 Safari/537.36",Macintosh,Chrome,123.0.0.0,OS X,10_15_7,null,"en-US,en;q=0.9,fr;q=0.8",a733u1,<p>Correct!</p> Press the space bar to continue.,,,,,,,,,
470,1,audio-button-response,10,6072,0.0-10.0,2,tonic G4,2024-04-29 15:55:45,70dd8527a7d03d02011aab09188cbbde,129.199.158.16,"Mozilla/5.0 (Macintosh; Intel Mac OS X 10_15_7) AppleWebKit/537.36 (KHTML, like Gecko) Chrome/123.0.0.0 Safari/537.36",Macintosh,Chrome,123.0.0.0,OS X,10_15_7,null,"en-US,en;q=0.9,fr;q=0.8",a733u1,fc_accents_54_4.mp3,soundcheck,true,,,,,,,
323, ,html-keyboard-response,11,6396,0.0-11.0,2,tonic G4,2024-04-29 15:55:45,70dd8527a7d03d02011aab09188cbbde,129.199.158.16,"Mozilla/5.0 (Macintosh; Intel Mac OS X 10_15_7) AppleWebKit/537.36 (KHTML, like Gecko) Chrome/123.0.0.0 Safari/537.36",Macintosh,Chrome,123.0.0.0,OS X,10_15_7,null,"en-US,en;q=0.9,fr;q=0.8",a733u1,<p>Correct!</p> Press the space bar to continue.,,,,,,,,,
439, ,html-keyboard-response,12,6837,0.0-12.0,2,tonic G4,2024-04-29 15:55:45,70dd8527a7d03d02011aab09188cbbde,129.199.158.16,"Mozilla/5.0 (Macintosh; Intel Mac OS X 10_15_7) AppleWebKit/537.36 (KHTML, like Gecko) Chrome/123.0.0.0 Safari/537.36",Macintosh,Chrome,123.0.0.0,OS X,10_15_7,null,"en-US,en;q=0.9,fr;q=0.8",a733u1,"If you got <b>less than 2/3</b> of the previous soundcheck questions correct, <b>we unfortunately cannot use your data or pay you</b>. Please exit the experiment now.
    
    <p>If you got <b>more than 2/3</b> correct, press the space bar to continue</p>.",,,,,,,,,
309, ,html-keyboard-response,13,7148,0.0-13.0,2,tonic G4,2024-04-29 15:55:45,70dd8527a7d03d02011aab09188cbbde,129.199.158.16,"Mozilla/5.0 (Macintosh; Intel Mac OS X 10_15_7) AppleWebKit/537.36 (KHTML, like Gecko) Chrome/123.0.0.0 Safari/537.36",Macintosh,Chrome,123.0.0.0,OS X,10_15_7,null,"en-US,en;q=0.9,fr;q=0.8",a733u1,"<p>Please listen carefully to the following set of melodies. 
      You will occassionally be asked some basic questions about some of the melodies to check your attention level. </p>
    <p><b>Press the space bar to continue.</b></p>",,,,,,,,,
290, ,html-keyboard-response,14,7439,0.0-14.0,2,tonic G4,2024-04-29 15:55:45,70dd8527a7d03d02011aab09188cbbde,129.199.158.16,"Mozilla/5.0 (Macintosh; Intel Mac OS X 10_15_7) AppleWebKit/537.36 (KHTML, like Gecko) Chrome/123.0.0.0 Safari/537.36",Macintosh,Chrome,123.0.0.0,OS X,10_15_7,null,"en-US,en;q=0.9,fr;q=0.8",a733u1,"<p>The attention questions vary in difficulty, but you must get at least some questions correct for us to pay you.</p>
    <p><b>Press the space bar to continue.</b></p>",,,,,,,,,
306, ,html-keyboard-response,15,7747,0.0-15.0,2,tonic G4,2024-04-29 15:55:45,70dd8527a7d03d02011aab09188cbbde,129.199.158.16,"Mozilla/5.0 (Macintosh; Intel Mac OS X 10_15_7) AppleWebKit/537.36 (KHTML, like Gecko) Chrome/123.0.0.0 Safari/537.36",Macintosh,Chrome,123.0.0.0,OS X,10_15_7,null,"en-US,en;q=0.9,fr;q=0.8",a733u1,"
    This part of the experiment should take <b>15-20 minutes</b>. 
    <p><b>Press the space bar to begin.</b></p>",,,,,,,,,
313, ,audio-keyboard-response,16,8112,0.0-16.0-0.0,2,tonic G4,2024-04-29 15:55:45,70dd8527a7d03d02011aab09188cbbde,129.199.158.16,"Mozilla/5.0 (Macintosh; Intel Mac OS X 10_15_7) AppleWebKit/537.36 (KHTML, like Gecko) Chrome/123.0.0.0 Safari/537.36",Macintosh,Chrome,123.0.0.0,OS X,10_15_7,null,"en-US,en;q=0.9,fr;q=0.8",a733u1,"[""exposure_4s_39.mp3""]",exposure,,exp_noresponse,,,,,,
110, ,audio-keyboard-response,17,8456,0.0-16.0-1.0,2,tonic G4,2024-04-29 15:55:45,70dd8527a7d03d02011aab09188cbbde,129.199.158.16,"Mozilla/5.0 (Macintosh; Intel Mac OS X 10_15_7) AppleWebKit/537.36 (KHTML, like Gecko) Chrome/123.0.0.0 Safari/537.36",Macintosh,Chrome,123.0.0.0,OS X,10_15_7,null,"en-US,en;q=0.9,fr;q=0.8",a733u1,"[""exposure_4s_14.mp3""]",exposure,,exp_noresponse,,,,,,
0, ,audio-keyboard-response,18,8694,0.0-16.0-2.0,2,tonic G4,2024-04-29 15:55:45,70dd8527a7d03d02011aab09188cbbde,129.199.158.16,"Mozilla/5.0 (Macintosh; Intel Mac OS X 10_15_7) AppleWebKit/537.36 (KHTML, like Gecko) Chrome/123.0.0.0 Safari/537.36",Macintosh,Chrome,123.0.0.0,OS X,10_15_7,null,"en-US,en;q=0.9,fr;q=0.8",a733u1,"[""exposure_4s_24.mp3""]",exposure,,exp_noresponse,,,,,,
267, ,audio-keyboard-response,19,9234,0.0-16.0-3.0,2,tonic G4,2024-04-29 15:55:45,70dd8527a7d03d02011aab09188cbbde,129.199.158.16,"Mozilla/5.0 (Macintosh; Intel Mac OS X 10_15_7) AppleWebKit/537.36 (KHTML, like Gecko) Chrome/123.0.0.0 Safari/537.36",Macintosh,Chrome,123.0.0.0,OS X,10_15_7,null,"en-US,en;q=0.9,fr;q=0.8",a733u1,"[""exposure_4s_17.mp3""]",exposure,,exp_noresponse,,,,,,
0, ,audio-keyboard-response,20,9469,0.0-16.0-4.0,2,tonic G4,2024-04-29 15:55:45,70dd8527a7d03d02011aab09188cbbde,129.199.158.16,"Mozilla/5.0 (Macintosh; Intel Mac OS X 10_15_7) AppleWebKit/537.36 (KHTML, like Gecko) Chrome/123.0.0.0 Safari/537.36",Macintosh,Chrome,123.0.0.0,OS X,10_15_7,null,"en-US,en;q=0.9,fr;q=0.8",a733u1,"[""exposure_4s_36.mp3""]",exposure,,exp_noresponse,,,,,,
237, ,html-keyboard-response,21,9707,0.0-17.0,2,tonic G4,2024-04-29 15:55:45,70dd8527a7d03d02011aab09188cbbde,129.199.158.16,"Mozilla/5.0 (Macintosh; Intel Mac OS X 10_15_7) AppleWebKit/537.36 (KHTML, like Gecko) Chrome/123.0.0.0 Safari/537.36",Macintosh,Chrome,123.0.0.0,OS X,10_15_7,null,"en-US,en;q=0.9,fr;q=0.8",a733u1,"<p>You will now be asked to judge how similar some melodies are to what you have
    just listened to. </p>
    <p><b>Press the space bar to continue.</b></p>",,,,,,,,,
312, ,html-keyboard-response,22,10021,0.0-18.0,2,tonic G4,2024-04-29 15:55:45,70dd8527a7d03d02011aab09188cbbde,129.199.158.16,"Mozilla/5.0 (Macintosh; Intel Mac OS X 10_15_7) AppleWebKit/537.36 (KHTML, like Gecko) Chrome/123.0.0.0 Safari/537.36",Macintosh,Chrome,123.0.0.0,OS X,10_15_7,null,"en-US,en;q=0.9,fr;q=0.8",a733u1,"<p>The changes in the melodies are subtle. If you are not sure, go with your gut feeling.</p>
    <p><b>Press the space bar to continue.</b></p>",,,,,,,,,
1039,4,audio-slider-response,23,11090,0.0-19.0-0.0,2,tonic G4,2024-04-29 15:55:45,70dd8527a7d03d02011aab09188cbbde,129.199.158.16,"Mozilla/5.0 (Macintosh; Intel Mac OS X 10_15_7) AppleWebKit/537.36 (KHTML, like Gecko) Chrome/123.0.0.0 Safari/537.36",Macintosh,Chrome,123.0.0.0,OS X,10_15_7,null,"en-US,en;q=0.9,fr;q=0.8",a733u1,agrammatical_5.mp3,grammar_learning,,,4,,,,,
499,4,audio-slider-response,24,11615,0.0-19.0-0.1,2,tonic G4,2024-04-29 15:55:45,70dd8527a7d03d02011aab09188cbbde,129.199.158.16,"Mozilla/5.0 (Macintosh; Intel Mac OS X 10_15_7) AppleWebKit/537.36 (KHTML, like Gecko) Chrome/123.0.0.0 Safari/537.36",Macintosh,Chrome,123.0.0.0,OS X,10_15_7,null,"en-US,en;q=0.9,fr;q=0.8",a733u1,agrammatical_2.mp3,grammar_learning,,,4,,,,,
372,4,audio-slider-response,25,12012,0.0-19.0-0.2,2,tonic G4,2024-04-29 15:55:45,70dd8527a7d03d02011aab09188cbbde,129.199.158.16,"Mozilla/5.0 (Macintosh; Intel Mac OS X 10_15_7) AppleWebKit/537.36 (KHTML, like Gecko) Chrome/123.0.0.0 Safari/537.36",Macintosh,Chrome,123.0.0.0,OS X,10_15_7,null,"en-US,en;q=0.9,fr;q=0.8",a733u1,grammatical_6.mp3,grammar_learning,,,4,,,,,
372,4,audio-slider-response,26,12406,0.0-19.0-0.3,2,tonic G4,2024-04-29 15:55:45,70dd8527a7d03d02011aab09188cbbde,129.199.158.16,"Mozilla/5.0 (Macintosh; Intel Mac OS X 10_15_7) AppleWebKit/537.36 (KHTML, like Gecko) Chrome/123.0.0.0 Safari/537.36",Macintosh,Chrome,123.0.0.0,OS X,10_15_7,null,"en-US,en;q=0.9,fr;q=0.8",a733u1,agrammatical_3.mp3,grammar_learning,,,4,,,,,
279,4,audio-slider-response,27,12710,0.0-19.0-0.4,2,tonic G4,2024-04-29 15:55:45,70dd8527a7d03d02011aab09188cbbde,129.199.158.16,"Mozilla/5.0 (Macintosh; Intel Mac OS X 10_15_7) AppleWebKit/537.36 (KHTML, like Gecko) Chrome/123.0.0.0 Safari/537.36",Macintosh,Chrome,123.0.0.0,OS X,10_15_7,null,"en-US,en;q=0.9,fr;q=0.8",a733u1,grammatical_2.mp3,grammar_learning,,,4,,,,,
203,4,audio-slider-response,28,12935,0.0-19.0-0.5,2,tonic G4,2024-04-29 15:55:45,70dd8527a7d03d02011aab09188cbbde,129.199.158.16,"Mozilla/5.0 (Macintosh; Intel Mac OS X 10_15_7) AppleWebKit/537.36 (KHTML, like Gecko) Chrome/123.0.0.0 Safari/537.36",Macintosh,Chrome,123.0.0.0,OS X,10_15_7,null,"en-US,en;q=0.9,fr;q=0.8",a733u1,grammatical_3.mp3,grammar_learning,,,4,,,,,
134,4,audio-slider-response,29,13092,0.0-19.0-0.6,2,tonic G4,2024-04-29 15:55:45,70dd8527a7d03d02011aab09188cbbde,129.199.158.16,"Mozilla/5.0 (Macintosh; Intel Mac OS X 10_15_7) AppleWebKit/537.36 (KHTML, like Gecko) Chrome/123.0.0.0 Safari/537.36",Macintosh,Chrome,123.0.0.0,OS X,10_15_7,null,"en-US,en;q=0.9,fr;q=0.8",a733u1,agrammatical_7.mp3,grammar_learning,,,4,,,,,
110,4,audio-slider-response,30,13226,0.0-19.0-0.7,2,tonic G4,2024-04-29 15:55:45,70dd8527a7d03d02011aab09188cbbde,129.199.158.16,"Mozilla/5.0 (Macintosh; Intel Mac OS X 10_15_7) AppleWebKit/537.36 (KHTML, like Gecko) Chrome/123.0.0.0 Safari/537.36",Macintosh,Chrome,123.0.0.0,OS X,10_15_7,null,"en-US,en;q=0.9,fr;q=0.8",a733u1,agrammatical_1.mp3,grammar_learning,,,4,,,,,
93,4,audio-slider-response,31,13348,0.0-19.0-0.8,2,tonic G4,2024-04-29 15:55:45,70dd8527a7d03d02011aab09188cbbde,129.199.158.16,"Mozilla/5.0 (Macintosh; Intel Mac OS X 10_15_7) AppleWebKit/537.36 (KHTML, like Gecko) Chrome/123.0.0.0 Safari/537.36",Macintosh,Chrome,123.0.0.0,OS X,10_15_7,null,"en-US,en;q=0.9,fr;q=0.8",a733u1,agrammatical_8.mp3,grammar_learning,,,4,,,,,
93,4,audio-slider-response,32,13465,0.0-19.0-0.9,2,tonic G4,2024-04-29 15:55:45,70dd8527a7d03d02011aab09188cbbde,129.199.158.16,"Mozilla/5.0 (Macintosh; Intel Mac OS X 10_15_7) AppleWebKit/537.36 (KHTML, like Gecko) Chrome/123.0.0.0 Safari/537.36",Macintosh,Chrome,123.0.0.0,OS X,10_15_7,null,"en-US,en;q=0.9,fr;q=0.8",a733u1,agrammatical_6.mp3,grammar_learning,,,4,,,,,
110,4,audio-slider-response,33,13599,0.0-19.0-0.10,2,tonic G4,2024-04-29 15:55:45,70dd8527a7d03d02011aab09188cbbde,129.199.158.16,"Mozilla/5.0 (Macintosh; Intel Mac OS X 10_15_7) AppleWebKit/537.36 (KHTML, like Gecko) Chrome/123.0.0.0 Safari/537.36",Macintosh,Chrome,123.0.0.0,OS X,10_15_7,null,"en-US,en;q=0.9,fr;q=0.8",a733u1,agrammatical_4.mp3,grammar_learning,,,4,,,,,
145,4,audio-slider-response,34,13766,0.0-19.0-0.11,2,tonic G4,2024-04-29 15:55:45,70dd8527a7d03d02011aab09188cbbde,129.199.158.16,"Mozilla/5.0 (Macintosh; Intel Mac OS X 10_15_7) AppleWebKit/537.36 (KHTML, like Gecko) Chrome/123.0.0.0 Safari/537.36",Macintosh,Chrome,123.0.0.0,OS X,10_15_7,null,"en-US,en;q=0.9,fr;q=0.8",a733u1,grammatical_7.mp3,grammar_learning,,,4,,,,,
116,4,audio-slider-response,35,13914,0.0-19.0-0.12,2,tonic G4,2024-04-29 15:55:45,70dd8527a7d03d02011aab09188cbbde,129.199.158.16,"Mozilla/5.0 (Macintosh; Intel Mac OS X 10_15_7) AppleWebKit/537.36 (KHTML, like Gecko) Chrome/123.0.0.0 Safari/537.36",Macintosh,Chrome,123.0.0.0,OS X,10_15_7,null,"en-US,en;q=0.9,fr;q=0.8",a733u1,grammatical_4.mp3,grammar_learning,,,4,,,,,
174,4,audio-slider-response,36,14117,0.0-19.0-0.13,2,tonic G4,2024-04-29 15:55:45,70dd8527a7d03d02011aab09188cbbde,129.199.158.16,"Mozilla/5.0 (Macintosh; Intel Mac OS X 10_15_7) AppleWebKit/537.36 (KHTML, like Gecko) Chrome/123.0.0.0 Safari/537.36",Macintosh,Chrome,123.0.0.0,OS X,10_15_7,null,"en-US,en;q=0.9,fr;q=0.8",a733u1,grammatical_8.mp3,grammar_learning,,,4,,,,,
151,4,audio-slider-response,37,14273,0.0-19.0-0.14,2,tonic G4,2024-04-29 15:55:45,70dd8527a7d03d02011aab09188cbbde,129.199.158.16,"Mozilla/5.0 (Macintosh; Intel Mac OS X 10_15_7) AppleWebKit/537.36 (KHTML, like Gecko) Chrome/123.0.0.0 Safari/537.36",Macintosh,Chrome,123.0.0.0,OS X,10_15_7,null,"en-US,en;q=0.9,fr;q=0.8",a733u1,grammatical_1.mp3,grammar_learning,,,4,,,,,
116,4,audio-slider-response,38,14419,0.0-19.0-0.15,2,tonic G4,2024-04-29 15:55:45,70dd8527a7d03d02011aab09188cbbde,129.199.158.16,"Mozilla/5.0 (Macintosh; Intel Mac OS X 10_15_7) AppleWebKit/537.36 (KHTML, like Gecko) Chrome/123.0.0.0 Safari/537.36",Macintosh,Chrome,123.0.0.0,OS X,10_15_7,null,"en-US,en;q=0.9,fr;q=0.8",a733u1,grammatical_5.mp3,grammar_learning,,,4,,,,,
729,"{""prolific_id"":""""}",survey-html-form,39,15150,0.0-20.0,2,tonic G4,2024-04-29 15:55:45,70dd8527a7d03d02011aab09188cbbde,129.199.158.16,"Mozilla/5.0 (Macintosh; Intel Mac OS X 10_15_7) AppleWebKit/537.36 (KHTML, like Gecko) Chrome/123.0.0.0 Safari/537.36",Macintosh,Chrome,123.0.0.0,OS X,10_15_7,null,"en-US,en;q=0.9,fr;q=0.8",a733u1,,,,,,,,,,
731, ,html-keyboard-response,40,15883,0.0-21.0,2,tonic G4,2024-04-29 15:55:45,70dd8527a7d03d02011aab09188cbbde,129.199.158.16,"Mozilla/5.0 (Macintosh; Intel Mac OS X 10_15_7) AppleWebKit/537.36 (KHTML, like Gecko) Chrome/123.0.0.0 Safari/537.36",Macintosh,Chrome,123.0.0.0,OS X,10_15_7,null,"en-US,en;q=0.9,fr;q=0.8",a733u1,"<p>In this part of the experiment, you will presented with two melodies in succession. 
    <p><b>Press the space bar to continue.</b></p>",,,,,,,,,
314, ,html-keyboard-response,41,16199,0.0-22.0,2,tonic G4,2024-04-29 15:55:45,70dd8527a7d03d02011aab09188cbbde,129.199.158.16,"Mozilla/5.0 (Macintosh; Intel Mac OS X 10_15_7) AppleWebKit/537.36 (KHTML, like Gecko) Chrome/123.0.0.0 Safari/537.36",Macintosh,Chrome,123.0.0.0,OS X,10_15_7,null,"en-US,en;q=0.9,fr;q=0.8",a733u1,"<p>The melodies are nearly identical, but have either an added accent or one different note. </p>
    <p><b>Press the space bar to continue.</b></p>",,,,,,,,,
218, ,html-keyboard-response,42,16419,0.0-23.0,2,tonic G4,2024-04-29 15:55:45,70dd8527a7d03d02011aab09188cbbde,129.199.158.16,"Mozilla/5.0 (Macintosh; Intel Mac OS X 10_15_7) AppleWebKit/537.36 (KHTML, like Gecko) Chrome/123.0.0.0 Safari/537.36",Macintosh,Chrome,123.0.0.0,OS X,10_15_7,null,"en-US,en;q=0.9,fr;q=0.8",a733u1,"<p>    Please choose the melody that <b>sounds better to you.</b></p>
    <p><b>Press the space bar to continue.</b></p>",,,,,,,,,
182, ,html-keyboard-response,43,16603,0.0-24.0,2,tonic G4,2024-04-29 15:55:45,70dd8527a7d03d02011aab09188cbbde,129.199.158.16,"Mozilla/5.0 (Macintosh; Intel Mac OS X 10_15_7) AppleWebKit/537.36 (KHTML, like Gecko) Chrome/123.0.0.0 Safari/537.36",Macintosh,Chrome,123.0.0.0,OS X,10_15_7,null,"en-US,en;q=0.9,fr;q=0.8",a733u1,There are <b>32 questions</b> in this section.,,,,,,,,,
993,f,audio-keyboard-response,44,17598,0.0-25.0-0.0,2,tonic G4,2024-04-29 15:55:45,70dd8527a7d03d02011aab09188cbbde,129.199.158.16,"Mozilla/5.0 (Macintosh; Intel Mac OS X 10_15_7) AppleWebKit/537.36 (KHTML, like Gecko) Chrome/123.0.0.0 Safari/537.36",Macintosh,Chrome,123.0.0.0,OS X,10_15_7,null,"en-US,en;q=0.9,fr;q=0.8",a733u1,fc_accents_56_4.mp3,forced_choice,,,,j,NA,false,false,
284,f,audio-keyboard-response,45,17903,0.0-25.0-0.1,2,tonic G4,2024-04-29 15:55:45,70dd8527a7d03d02011aab09188cbbde,129.199.158.16,"Mozilla/5.0 (Macintosh; Intel Mac OS X 10_15_7) AppleWebKit/537.36 (KHTML, like Gecko) Chrome/123.0.0.0 Safari/537.36",Macintosh,Chrome,123.0.0.0,OS X,10_15_7,null,"en-US,en;q=0.9,fr;q=0.8",a733u1,fc_accents_34_2.mp3,forced_choice,,,,j,NA,false,false,
35,j,audio-keyboard-response,46,17965,0.0-25.0-0.2,2,tonic G4,2024-04-29 15:55:45,70dd8527a7d03d02011aab09188cbbde,129.199.158.16,"Mozilla/5.0 (Macintosh; Intel Mac OS X 10_15_7) AppleWebKit/537.36 (KHTML, like Gecko) Chrome/123.0.0.0 Safari/537.36",Macintosh,Chrome,123.0.0.0,OS X,10_15_7,null,"en-US,en;q=0.9,fr;q=0.8",a733u1,fc_accents_34_1.mp3,forced_choice,,,,j,NA,true,false,
168,f,audio-keyboard-response,47,18154,0.0-25.0-0.3,2,tonic G4,2024-04-29 15:55:45,70dd8527a7d03d02011aab09188cbbde,129.199.158.16,"Mozilla/5.0 (Macintosh; Intel Mac OS X 10_15_7) AppleWebKit/537.36 (KHTML, like Gecko) Chrome/123.0.0.0 Safari/537.36",Macintosh,Chrome,123.0.0.0,OS X,10_15_7,null,"en-US,en;q=0.9,fr;q=0.8",a733u1,fc_accents_34_3.mp3,forced_choice,,,,j,NA,false,false,
110,j,audio-keyboard-response,48,18290,0.0-25.0-0.4,2,tonic G4,2024-04-29 15:55:45,70dd8527a7d03d02011aab09188cbbde,129.199.158.16,"Mozilla/5.0 (Macintosh; Intel Mac OS X 10_15_7) AppleWebKit/537.36 (KHTML, like Gecko) Chrome/123.0.0.0 Safari/537.36",Macintosh,Chrome,123.0.0.0,OS X,10_15_7,null,"en-US,en;q=0.9,fr;q=0.8",a733u1,fc_IC_default_5_1.mp3,forced_choice,,,,NA,j,false,true,
174,j,audio-keyboard-response,49,18488,0.0-25.0-0.5,2,tonic G4,2024-04-29 15:55:45,70dd8527a7d03d02011aab09188cbbde,129.199.158.16,"Mozilla/5.0 (Macintosh; Intel Mac OS X 10_15_7) AppleWebKit/537.36 (KHTML, like Gecko) Chrome/123.0.0.0 Safari/537.36",Macintosh,Chrome,123.0.0.0,OS X,10_15_7,null,"en-US,en;q=0.9,fr;q=0.8",a733u1,fc_IC_default_5_4.mp3,forced_choice,,,,NA,j,false,true,
122,f,audio-keyboard-response,50,18634,0.0-25.0-0.6,2,tonic G4,2024-04-29 15:55:45,70dd8527a7d03d02011aab09188cbbde,129.199.158.16,"Mozilla/5.0 (Macintosh; Intel Mac OS X 10_15_7) AppleWebKit/537.36 (KHTML, like Gecko) Chrome/123.0.0.0 Safari/537.36",Macintosh,Chrome,123.0.0.0,OS X,10_15_7,null,"en-US,en;q=0.9,fr;q=0.8",a733u1,fc_IC_accent_3_2.mp3,forced_choice,,,,NA,f,false,true,
52,j,audio-keyboard-response,51,18706,0.0-25.0-0.7,2,tonic G4,2024-04-29 15:55:45,70dd8527a7d03d02011aab09188cbbde,129.199.158.16,"Mozilla/5.0 (Macintosh; Intel Mac OS X 10_15_7) AppleWebKit/537.36 (KHTML, like Gecko) Chrome/123.0.0.0 Safari/537.36",Macintosh,Chrome,123.0.0.0,OS X,10_15_7,null,"en-US,en;q=0.9,fr;q=0.8",a733u1,fc_IC_default_5_2.mp3,forced_choice,,,,NA,j,false,true,
81,f,audio-keyboard-response,52,18805,0.0-25.0-0.8,2,tonic G4,2024-04-29 15:55:45,70dd8527a7d03d02011aab09188cbbde,129.199.158.16,"Mozilla/5.0 (Macintosh; Intel Mac OS X 10_15_7) AppleWebKit/537.36 (KHTML, like Gecko) Chrome/123.0.0.0 Safari/537.36",Macintosh,Chrome,123.0.0.0,OS X,10_15_7,null,"en-US,en;q=0.9,fr;q=0.8",a733u1,fc_accents_56_2.mp3,forced_choice,,,,j,NA,false,false,
58,j,audio-keyboard-response,53,18887,0.0-25.0-0.9,2,tonic G4,2024-04-29 15:55:45,70dd8527a7d03d02011aab09188cbbde,129.199.158.16,"Mozilla/5.0 (Macintosh; Intel Mac OS X 10_15_7) AppleWebKit/537.36 (KHTML, like Gecko) Chrome/123.0.0.0 Safari/537.36",Macintosh,Chrome,123.0.0.0,OS X,10_15_7,null,"en-US,en;q=0.9,fr;q=0.8",a733u1,fc_IC_default_3_4.mp3,forced_choice,,,,NA,f,false,false,
58,f,audio-keyboard-response,54,18966,0.0-25.0-0.10,2,tonic G4,2024-04-29 15:55:45,70dd8527a7d03d02011aab09188cbbde,129.199.158.16,"Mozilla/5.0 (Macintosh; Intel Mac OS X 10_15_7) AppleWebKit/537.36 (KHTML, like Gecko) Chrome/123.0.0.0 Safari/537.36",Macintosh,Chrome,123.0.0.0,OS X,10_15_7,null,"en-US,en;q=0.9,fr;q=0.8",a733u1,fc_IC_accent_3_4.mp3,forced_choice,,,,NA,f,false,true,
64,j,audio-keyboard-response,55,19047,0.0-25.0-0.11,2,tonic G4,2024-04-29 15:55:45,70dd8527a7d03d02011aab09188cbbde,129.199.158.16,"Mozilla/5.0 (Macintosh; Intel Mac OS X 10_15_7) AppleWebKit/537.36 (KHTML, like Gecko) Chrome/123.0.0.0 Safari/537.36",Macintosh,Chrome,123.0.0.0,OS X,10_15_7,null,"en-US,en;q=0.9,fr;q=0.8",a733u1,fc_IC_accent_5_4.mp3,forced_choice,,,,NA,j,false,true,
75,f,audio-keyboard-response,56,19143,0.0-25.0-0.12,2,tonic G4,2024-04-29 15:55:45,70dd8527a7d03d02011aab09188cbbde,129.199.158.16,"Mozilla/5.0 (Macintosh; Intel Mac OS X 10_15_7) AppleWebKit/537.36 (KHTML, like Gecko) Chrome/123.0.0.0 Safari/537.36",Macintosh,Chrome,123.0.0.0,OS X,10_15_7,null,"en-US,en;q=0.9,fr;q=0.8",a733u1,fc_IC_accent_5_1.mp3,forced_choice,,,,NA,j,false,false,
41,j,audio-keyboard-response,57,19203,0.0-25.0-0.13,2,tonic G4,2024-04-29 15:55:45,70dd8527a7d03d02011aab09188cbbde,129.199.158.16,"Mozilla/5.0 (Macintosh; Intel Mac OS X 10_15_7) AppleWebKit/537.36 (KHTML, like Gecko) Chrome/123.0.0.0 Safari/537.36",Macintosh,Chrome,123.0.0.0,OS X,10_15_7,null,"en-US,en;q=0.9,fr;q=0.8",a733u1,fc_IC_accent_5_2.mp3,forced_choice,,,,NA,j,false,true,
52,f,audio-keyboard-response,58,19277,0.0-25.0-0.14,2,tonic G4,2024-04-29 15:55:45,70dd8527a7d03d02011aab09188cbbde,129.199.158.16,"Mozilla/5.0 (Macintosh; Intel Mac OS X 10_15_7) AppleWebKit/537.36 (KHTML, like Gecko) Chrome/123.0.0.0 Safari/537.36",Macintosh,Chrome,123.0.0.0,OS X,10_15_7,null,"en-US,en;q=0.9,fr;q=0.8",a733u1,fc_accents_54_1.mp3,forced_choice,,,,j,NA,false,false,
116,f,audio-keyboard-response,59,19417,0.0-25.0-0.15,2,tonic G4,2024-04-29 15:55:45,70dd8527a7d03d02011aab09188cbbde,129.199.158.16,"Mozilla/5.0 (Macintosh; Intel Mac OS X 10_15_7) AppleWebKit/537.36 (KHTML, like Gecko) Chrome/123.0.0.0 Safari/537.36",Macintosh,Chrome,123.0.0.0,OS X,10_15_7,null,"en-US,en;q=0.9,fr;q=0.8",a733u1,fc_accents_34_4.mp3,forced_choice,,,,j,NA,false,false,
35,j,audio-keyboard-response,60,19478,0.0-25.0-0.16,2,tonic G4,2024-04-29 15:55:45,70dd8527a7d03d02011aab09188cbbde,129.199.158.16,"Mozilla/5.0 (Macintosh; Intel Mac OS X 10_15_7) AppleWebKit/537.36 (KHTML, like Gecko) Chrome/123.0.0.0 Safari/537.36",Macintosh,Chrome,123.0.0.0,OS X,10_15_7,null,"en-US,en;q=0.9,fr;q=0.8",a733u1,fc_accents_56_3.mp3,forced_choice,,,,j,NA,true,false,
81,f,audio-keyboard-response,61,19578,0.0-25.0-0.17,2,tonic G4,2024-04-29 15:55:45,70dd8527a7d03d02011aab09188cbbde,129.199.158.16,"Mozilla/5.0 (Macintosh; Intel Mac OS X 10_15_7) AppleWebKit/537.36 (KHTML, like Gecko) Chrome/123.0.0.0 Safari/537.36",Macintosh,Chrome,123.0.0.0,OS X,10_15_7,null,"en-US,en;q=0.9,fr;q=0.8",a733u1,fc_IC_accent_3_3.mp3,forced_choice,,,,NA,f,false,true,
46,j,audio-keyboard-response,62,19647,0.0-25.0-0.18,2,tonic G4,2024-04-29 15:55:45,70dd8527a7d03d02011aab09188cbbde,129.199.158.16,"Mozilla/5.0 (Macintosh; Intel Mac OS X 10_15_7) AppleWebKit/537.36 (KHTML, like Gecko) Chrome/123.0.0.0 Safari/537.36",Macintosh,Chrome,123.0.0.0,OS X,10_15_7,null,"en-US,en;q=0.9,fr;q=0.8",a733u1,fc_IC_default_3_2.mp3,forced_choice,,,,NA,f,false,false,
81,f,audio-keyboard-response,63,19746,0.0-25.0-0.19,2,tonic G4,2024-04-29 15:55:45,70dd8527a7d03d02011aab09188cbbde,129.199.158.16,"Mozilla/5.0 (Macintosh; Intel Mac OS X 10_15_7) AppleWebKit/537.36 (KHTML, like Gecko) Chrome/123.0.0.0 Safari/537.36",Macintosh,Chrome,123.0.0.0,OS X,10_15_7,null,"en-US,en;q=0.9,fr;q=0.8",a733u1,fc_IC_default_3_3.mp3,forced_choice,,,,NA,f,false,true,
23,j,audio-keyboard-response,64,19790,0.0-25.0-0.20,2,tonic G4,2024-04-29 15:55:45,70dd8527a7d03d02011aab09188cbbde,129.199.158.16,"Mozilla/5.0 (Macintosh; Intel Mac OS X 10_15_7) AppleWebKit/537.36 (KHTML, like Gecko) Chrome/123.0.0.0 Safari/537.36",Macintosh,Chrome,123.0.0.0,OS X,10_15_7,null,"en-US,en;q=0.9,fr;q=0.8",a733u1,fc_accents_32_3.mp3,forced_choice,,,,j,NA,true,false,
93,f,audio-keyboard-response,65,19902,0.0-25.0-0.21,2,tonic G4,2024-04-29 15:55:45,70dd8527a7d03d02011aab09188cbbde,129.199.158.16,"Mozilla/5.0 (Macintosh; Intel Mac OS X 10_15_7) AppleWebKit/537.36 (KHTML, like Gecko) Chrome/123.0.0.0 Safari/537.36",Macintosh,Chrome,123.0.0.0,OS X,10_15_7,null,"en-US,en;q=0.9,fr;q=0.8",a733u1,fc_accents_54_3.mp3,forced_choice,,,,j,NA,false,false,
52,j,audio-keyboard-response,66,19956,0.0-25.0-0.22,2,tonic G4,2024-04-29 15:55:45,70dd8527a7d03d02011aab09188cbbde,129.199.158.16,"Mozilla/5.0 (Macintosh; Intel Mac OS X 10_15_7) AppleWebKit/537.36 (KHTML, like Gecko) Chrome/123.0.0.0 Safari/537.36",Macintosh,Chrome,123.0.0.0,OS X,10_15_7,null,"en-US,en;q=0.9,fr;q=0.8",a733u1,fc_accents_32_1.mp3,forced_choice,,,,j,NA,true,false,
75,f,audio-keyboard-response,67,20051,0.0-25.0-0.23,2,tonic G4,2024-04-29 15:55:45,70dd8527a7d03d02011aab09188cbbde,129.199.158.16,"Mozilla/5.0 (Macintosh; Intel Mac OS X 10_15_7) AppleWebKit/537.36 (KHTML, like Gecko) Chrome/123.0.0.0 Safari/537.36",Macintosh,Chrome,123.0.0.0,OS X,10_15_7,null,"en-US,en;q=0.9,fr;q=0.8",a733u1,fc_IC_accent_3_1.mp3,forced_choice,,,,NA,f,false,true,
35,j,audio-keyboard-response,68,20104,0.0-25.0-0.24,2,tonic G4,2024-04-29 15:55:45,70dd8527a7d03d02011aab09188cbbde,129.199.158.16,"Mozilla/5.0 (Macintosh; Intel Mac OS X 10_15_7) AppleWebKit/537.36 (KHTML, like Gecko) Chrome/123.0.0.0 Safari/537.36",Macintosh,Chrome,123.0.0.0,OS X,10_15_7,null,"en-US,en;q=0.9,fr;q=0.8",a733u1,fc_IC_default_5_3.mp3,forced_choice,,,,NA,j,false,true,
81,f,audio-keyboard-response,69,20206,0.0-25.0-0.25,2,tonic G4,2024-04-29 15:55:45,70dd8527a7d03d02011aab09188cbbde,129.199.158.16,"Mozilla/5.0 (Macintosh; Intel Mac OS X 10_15_7) AppleWebKit/537.36 (KHTML, like Gecko) Chrome/123.0.0.0 Safari/537.36",Macintosh,Chrome,123.0.0.0,OS X,10_15_7,null,"en-US,en;q=0.9,fr;q=0.8",a733u1,fc_accents_32_2.mp3,forced_choice,,,,j,NA,false,false,
12,j,audio-keyboard-response,70,20239,0.0-25.0-0.26,2,tonic G4,2024-04-29 15:55:45,70dd8527a7d03d02011aab09188cbbde,129.199.158.16,"Mozilla/5.0 (Macintosh; Intel Mac OS X 10_15_7) AppleWebKit/537.36 (KHTML, like Gecko) Chrome/123.0.0.0 Safari/537.36",Macintosh,Chrome,123.0.0.0,OS X,10_15_7,null,"en-US,en;q=0.9,fr;q=0.8",a733u1,fc_accents_56_1.mp3,forced_choice,,,,j,NA,true,false,
110,f,audio-keyboard-response,71,20367,0.0-25.0-0.27,2,tonic G4,2024-04-29 15:55:45,70dd8527a7d03d02011aab09188cbbde,129.199.158.16,"Mozilla/5.0 (Macintosh; Intel Mac OS X 10_15_7) AppleWebKit/537.36 (KHTML, like Gecko) Chrome/123.0.0.0 Safari/537.36",Macintosh,Chrome,123.0.0.0,OS X,10_15_7,null,"en-US,en;q=0.9,fr;q=0.8",a733u1,fc_accents_32_4.mp3,forced_choice,,,,j,NA,false,false,
29,j,audio-keyboard-response,72,20420,0.0-25.0-0.28,2,tonic G4,2024-04-29 15:55:45,70dd8527a7d03d02011aab09188cbbde,129.199.158.16,"Mozilla/5.0 (Macintosh; Intel Mac OS X 10_15_7) AppleWebKit/537.36 (KHTML, like Gecko) Chrome/123.0.0.0 Safari/537.36",Macintosh,Chrome,123.0.0.0,OS X,10_15_7,null,"en-US,en;q=0.9,fr;q=0.8",a733u1,fc_accents_54_2.mp3,forced_choice,,,,j,NA,true,false,
110,f,audio-keyboard-response,73,20534,0.0-25.0-0.29,2,tonic G4,2024-04-29 15:55:45,70dd8527a7d03d02011aab09188cbbde,129.199.158.16,"Mozilla/5.0 (Macintosh; Intel Mac OS X 10_15_7) AppleWebKit/537.36 (KHTML, like Gecko) Chrome/123.0.0.0 Safari/537.36",Macintosh,Chrome,123.0.0.0,OS X,10_15_7,null,"en-US,en;q=0.9,fr;q=0.8",a733u1,fc_accents_54_4.mp3,forced_choice,,,,j,NA,false,false,
46,j,audio-keyboard-response,74,20602,0.0-25.0-0.30,2,tonic G4,2024-04-29 15:55:45,70dd8527a7d03d02011aab09188cbbde,129.199.158.16,"Mozilla/5.0 (Macintosh; Intel Mac OS X 10_15_7) AppleWebKit/537.36 (KHTML, like Gecko) Chrome/123.0.0.0 Safari/537.36",Macintosh,Chrome,123.0.0.0,OS X,10_15_7,null,"en-US,en;q=0.9,fr;q=0.8",a733u1,fc_IC_accent_5_3.mp3,forced_choice,,,,NA,j,false,true,
75,f,audio-keyboard-response,75,20696,0.0-25.0-0.31,2,tonic G4,2024-04-29 15:55:45,70dd8527a7d03d02011aab09188cbbde,129.199.158.16,"Mozilla/5.0 (Macintosh; Intel Mac OS X 10_15_7) AppleWebKit/537.36 (KHTML, like Gecko) Chrome/123.0.0.0 Safari/537.36",Macintosh,Chrome,123.0.0.0,OS X,10_15_7,null,"en-US,en;q=0.9,fr;q=0.8",a733u1,fc_IC_default_3_1.mp3,forced_choice,,,,NA,f,false,true,
1033, ,html-keyboard-response,76,21731,0.0-26.0,2,tonic G4,2024-04-29 15:55:45,70dd8527a7d03d02011aab09188cbbde,129.199.158.16,"Mozilla/5.0 (Macintosh; Intel Mac OS X 10_15_7) AppleWebKit/537.36 (KHTML, like Gecko) Chrome/123.0.0.0 Safari/537.36",Macintosh,Chrome,123.0.0.0,OS X,10_15_7,null,"en-US,en;q=0.9,fr;q=0.8",a733u1,"<p>You have completed all the listening in this experiment. The remaining questions about your background
          will help us better understand your responses. You can skip any question that you do not wish to answer. </p>
          <p> <b> Press the space bar to continue. </b></p>",,,,,,,,,
1189,"{""HeadphoneUse"":""No, I used computer speakers""}",survey-multi-choice,77,22924,0.0-27.0,2,tonic G4,2024-04-29 15:55:45,70dd8527a7d03d02011aab09188cbbde,129.199.158.16,"Mozilla/5.0 (Macintosh; Intel Mac OS X 10_15_7) AppleWebKit/537.36 (KHTML, like Gecko) Chrome/123.0.0.0 Safari/537.36",Macintosh,Chrome,123.0.0.0,OS X,10_15_7,null,"en-US,en;q=0.9,fr;q=0.8",a733u1,,survey,,,,,,,,[0]
3348,"{""age"":""vf"",""country"":""df"",""language"":""dfa""}",survey-html-form,78,26279,0.0-28.0,2,tonic G4,2024-04-29 15:55:45,70dd8527a7d03d02011aab09188cbbde,129.199.158.16,"Mozilla/5.0 (Macintosh; Intel Mac OS X 10_15_7) AppleWebKit/537.36 (KHTML, like Gecko) Chrome/123.0.0.0 Safari/537.36",Macintosh,Chrome,123.0.0.0,OS X,10_15_7,null,"en-US,en;q=0.9,fr;q=0.8",a733u1,,survey,,,,,,,,
1390,"{""Gender"":""Male""}",survey-multi-choice,79,27672,0.0-29.0,2,tonic G4,2024-04-29 15:55:45,70dd8527a7d03d02011aab09188cbbde,129.199.158.16,"Mozilla/5.0 (Macintosh; Intel Mac OS X 10_15_7) AppleWebKit/537.36 (KHTML, like Gecko) Chrome/123.0.0.0 Safari/537.36",Macintosh,Chrome,123.0.0.0,OS X,10_15_7,null,"en-US,en;q=0.9,fr;q=0.8",a733u1,,survey,,,,,,,,[0]
1174,"{""Colors"":[""Country""]}",survey-multi-select,80,28854,0.0-30.0,2,tonic G4,2024-04-29 15:55:45,70dd8527a7d03d02011aab09188cbbde,129.199.158.16,"Mozilla/5.0 (Macintosh; Intel Mac OS X 10_15_7) AppleWebKit/537.36 (KHTML, like Gecko) Chrome/123.0.0.0 Safari/537.36",Macintosh,Chrome,123.0.0.0,OS X,10_15_7,null,"en-US,en;q=0.9,fr;q=0.8",a733u1,,,,,,,,,,[0]
3594,"{""HearingImpairment"":""I'm not sure"",""PerfectPitch"":""I'm not sure"",""Singing"":""Yes""}",survey-multi-choice,81,32454,0.0-31.0,2,tonic G4,2024-04-29 15:55:45,70dd8527a7d03d02011aab09188cbbde,129.199.158.16,"Mozilla/5.0 (Macintosh; Intel Mac OS X 10_15_7) AppleWebKit/537.36 (KHTML, like Gecko) Chrome/123.0.0.0 Safari/537.36",Macintosh,Chrome,123.0.0.0,OS X,10_15_7,null,"en-US,en;q=0.9,fr;q=0.8",a733u1,,survey,,,,,,,,"[0,1,2]"
6937,"{""PracticeHours"":""1-2 hours"",""TrainingYears"":""Less than 1 year"",""TrainingType"":""I took lessons with a private teacher"",""Expertise"":""Beginner"",""NonWesternTraining"":""Yes""}",survey-multi-choice,82,39396,0.0-32.0,2,tonic G4,2024-04-29 15:55:45,70dd8527a7d03d02011aab09188cbbde,129.199.158.16,"Mozilla/5.0 (Macintosh; Intel Mac OS X 10_15_7) AppleWebKit/537.36 (KHTML, like Gecko) Chrome/123.0.0.0 Safari/537.36",Macintosh,Chrome,123.0.0.0,OS X,10_15_7,null,"en-US,en;q=0.9,fr;q=0.8",a733u1,,survey,,,,,,,,"[0,1,2,3,4]"
1522,"{""TrainingStart"":""Under 5""}",survey-multi-choice,83,40924,0.0-33.0,2,tonic G4,2024-04-29 15:55:45,70dd8527a7d03d02011aab09188cbbde,129.199.158.16,"Mozilla/5.0 (Macintosh; Intel Mac OS X 10_15_7) AppleWebKit/537.36 (KHTML, like Gecko) Chrome/123.0.0.0 Safari/537.36",Macintosh,Chrome,123.0.0.0,OS X,10_15_7,null,"en-US,en;q=0.9,fr;q=0.8",a733u1,,survey,,,,,,,,[0]
904,0,html-button-response,84,41835,0.0-34.0,2,tonic G4,2024-04-29 15:55:45,70dd8527a7d03d02011aab09188cbbde,129.199.158.16,"Mozilla/5.0 (Macintosh; Intel Mac OS X 10_15_7) AppleWebKit/537.36 (KHTML, like Gecko) Chrome/123.0.0.0 Safari/537.36",Macintosh,Chrome,123.0.0.0,OS X,10_15_7,null,"en-US,en;q=0.9,fr;q=0.8",a733u1,"You have reached the end of the experiment. Your completion code is <b>C1AWH3EX</b>.
    <p>For questions or concerns, please write to <b>haiqin.zhang@ens.psl.eu.</b></p>
    Thank you for your participation!
  ",,,,,,,,,
950,"{""prolific_id"":""""}",survey-html-form,0,952,0.0-0.0,3,tonic G4,2024-04-29 15:59:13,70dd8527a7d03d02011aab09188cbbde,129.199.158.16,"Mozilla/5.0 (Macintosh; Intel Mac OS X 10_15_7) AppleWebKit/537.36 (KHTML, like Gecko) Chrome/123.0.0.0 Safari/537.36",Macintosh,Chrome,123.0.0.0,OS X,10_15_7,null,"en-US,en;q=0.9,fr;q=0.8",nf243h,,,,,,,,,,
1351, ,html-keyboard-response,1,2305,0.0-1.0,3,tonic G4,2024-04-29 15:59:13,70dd8527a7d03d02011aab09188cbbde,129.199.158.16,"Mozilla/5.0 (Macintosh; Intel Mac OS X 10_15_7) AppleWebKit/537.36 (KHTML, like Gecko) Chrome/123.0.0.0 Safari/537.36",Macintosh,Chrome,123.0.0.0,OS X,10_15_7,null,"en-US,en;q=0.9,fr;q=0.8",nf243h,"
    <p>Please complete the experiment in a quiet place.
      We highly recommend using headphones.</p>

    </p align = 'justify'> <b>Press the space bar to proceed.</b> </p>",,,,,,,,,
429, ,html-keyboard-response,2,2735,0.0-2.0,3,tonic G4,2024-04-29 15:59:13,70dd8527a7d03d02011aab09188cbbde,129.199.158.16,"Mozilla/5.0 (Macintosh; Intel Mac OS X 10_15_7) AppleWebKit/537.36 (KHTML, like Gecko) Chrome/123.0.0.0 Safari/537.36",Macintosh,Chrome,123.0.0.0,OS X,10_15_7,null,"en-US,en;q=0.9,fr;q=0.8",nf243h,"
    <p>A series of soundchecks will now be played to help you adjust the volume
      to a comfortable level. </p>

    </p align = 'justify'> <b>Press the space bar to proceed.</b> </p>",,,,,,,,,
708,1,audio-button-response,3,3482,0.0-3.0-0.0,3,tonic G4,2024-04-29 15:59:13,70dd8527a7d03d02011aab09188cbbde,129.199.158.16,"Mozilla/5.0 (Macintosh; Intel Mac OS X 10_15_7) AppleWebKit/537.36 (KHTML, like Gecko) Chrome/123.0.0.0 Safari/537.36",Macintosh,Chrome,123.0.0.0,OS X,10_15_7,null,"en-US,en;q=0.9,fr;q=0.8",nf243h,grammatical_1.mp3,,,,,,,,,
416, ,html-keyboard-response,4,3899,0.0-4.0,3,tonic G4,2024-04-29 15:59:13,70dd8527a7d03d02011aab09188cbbde,129.199.158.16,"Mozilla/5.0 (Macintosh; Intel Mac OS X 10_15_7) AppleWebKit/537.36 (KHTML, like Gecko) Chrome/123.0.0.0 Safari/537.36",Macintosh,Chrome,123.0.0.0,OS X,10_15_7,null,"en-US,en;q=0.9,fr;q=0.8",nf243h,"<p width = 300 px>
    You will now hear two melodies in succession. 
    The notes in each melody are the same, but there is an accent on one note for one of the melodies. 
    <b>Listen for which melody has the accent.</b>
    </p>
    
    Press the space bar to continue.",,,,,,,,,
339, ,html-keyboard-response,5,4239,0.0-5.0,3,tonic G4,2024-04-29 15:59:13,70dd8527a7d03d02011aab09188cbbde,129.199.158.16,"Mozilla/5.0 (Macintosh; Intel Mac OS X 10_15_7) AppleWebKit/537.36 (KHTML, like Gecko) Chrome/123.0.0.0 Safari/537.36",Macintosh,Chrome,123.0.0.0,OS X,10_15_7,null,"en-US,en;q=0.9,fr;q=0.8",nf243h,"<p width = 300 px>
    <b>You must score at least 2/3 to proceed with the experiment.</b>
    </p>
    
    Press the space bar to continue.",,,,,,,,,
853,1,audio-button-response,6,5125,0.0-6.0,3,tonic G4,2024-04-29 15:59:13,70dd8527a7d03d02011aab09188cbbde,129.199.158.16,"Mozilla/5.0 (Macintosh; Intel Mac OS X 10_15_7) AppleWebKit/537.36 (KHTML, like Gecko) Chrome/123.0.0.0 Safari/537.36",Macintosh,Chrome,123.0.0.0,OS X,10_15_7,null,"en-US,en;q=0.9,fr;q=0.8",nf243h,fc_accents_32_1.mp3,soundcheck,true,,,,,,,
170, ,html-keyboard-response,7,5297,0.0-7.0,3,tonic G4,2024-04-29 15:59:13,70dd8527a7d03d02011aab09188cbbde,129.199.158.16,"Mozilla/5.0 (Macintosh; Intel Mac OS X 10_15_7) AppleWebKit/537.36 (KHTML, like Gecko) Chrome/123.0.0.0 Safari/537.36",Macintosh,Chrome,123.0.0.0,OS X,10_15_7,null,"en-US,en;q=0.9,fr;q=0.8",nf243h,<p>Correct!</p> Press the space bar to continue.,,,,,,,,,
575,1,audio-button-response,8,5891,0.0-8.0,3,tonic G4,2024-04-29 15:59:13,70dd8527a7d03d02011aab09188cbbde,129.199.158.16,"Mozilla/5.0 (Macintosh; Intel Mac OS X 10_15_7) AppleWebKit/537.36 (KHTML, like Gecko) Chrome/123.0.0.0 Safari/537.36",Macintosh,Chrome,123.0.0.0,OS X,10_15_7,null,"en-US,en;q=0.9,fr;q=0.8",nf243h,fc_accents_56_4.mp3,soundcheck,true,,,,,,,
282, ,html-keyboard-response,9,6174,0.0-9.0,3,tonic G4,2024-04-29 15:59:13,70dd8527a7d03d02011aab09188cbbde,129.199.158.16,"Mozilla/5.0 (Macintosh; Intel Mac OS X 10_15_7) AppleWebKit/537.36 (KHTML, like Gecko) Chrome/123.0.0.0 Safari/537.36",Macintosh,Chrome,123.0.0.0,OS X,10_15_7,null,"en-US,en;q=0.9,fr;q=0.8",nf243h,<p>Correct!</p> Press the space bar to continue.,,,,,,,,,
342,1,audio-button-response,10,6542,0.0-10.0,3,tonic G4,2024-04-29 15:59:13,70dd8527a7d03d02011aab09188cbbde,129.199.158.16,"Mozilla/5.0 (Macintosh; Intel Mac OS X 10_15_7) AppleWebKit/537.36 (KHTML, like Gecko) Chrome/123.0.0.0 Safari/537.36",Macintosh,Chrome,123.0.0.0,OS X,10_15_7,null,"en-US,en;q=0.9,fr;q=0.8",nf243h,fc_accents_54_4.mp3,soundcheck,true,,,,,,,
236, ,html-keyboard-response,11,6779,0.0-11.0,3,tonic G4,2024-04-29 15:59:13,70dd8527a7d03d02011aab09188cbbde,129.199.158.16,"Mozilla/5.0 (Macintosh; Intel Mac OS X 10_15_7) AppleWebKit/537.36 (KHTML, like Gecko) Chrome/123.0.0.0 Safari/537.36",Macintosh,Chrome,123.0.0.0,OS X,10_15_7,null,"en-US,en;q=0.9,fr;q=0.8",nf243h,<p>Correct!</p> Press the space bar to continue.,,,,,,,,,
496, ,html-keyboard-response,12,7277,0.0-12.0,3,tonic G4,2024-04-29 15:59:13,70dd8527a7d03d02011aab09188cbbde,129.199.158.16,"Mozilla/5.0 (Macintosh; Intel Mac OS X 10_15_7) AppleWebKit/537.36 (KHTML, like Gecko) Chrome/123.0.0.0 Safari/537.36",Macintosh,Chrome,123.0.0.0,OS X,10_15_7,null,"en-US,en;q=0.9,fr;q=0.8",nf243h,"If you got <b>less than 2/3</b> of the previous soundcheck questions correct, <b>we unfortunately cannot use your data or pay you</b>. Please exit the experiment now.
    
    <p>If you got <b>more than 2/3</b> correct, press the space bar to continue</p>.",,,,,,,,,
313, ,html-keyboard-response,13,7592,0.0-13.0,3,tonic G4,2024-04-29 15:59:13,70dd8527a7d03d02011aab09188cbbde,129.199.158.16,"Mozilla/5.0 (Macintosh; Intel Mac OS X 10_15_7) AppleWebKit/537.36 (KHTML, like Gecko) Chrome/123.0.0.0 Safari/537.36",Macintosh,Chrome,123.0.0.0,OS X,10_15_7,null,"en-US,en;q=0.9,fr;q=0.8",nf243h,"<p>Please listen carefully to the following set of melodies. 
      You will occassionally be asked some basic questions about some of the melodies to check your attention level. </p>
    <p><b>Press the space bar to continue.</b></p>",,,,,,,,,
291, ,html-keyboard-response,14,7884,0.0-14.0,3,tonic G4,2024-04-29 15:59:13,70dd8527a7d03d02011aab09188cbbde,129.199.158.16,"Mozilla/5.0 (Macintosh; Intel Mac OS X 10_15_7) AppleWebKit/537.36 (KHTML, like Gecko) Chrome/123.0.0.0 Safari/537.36",Macintosh,Chrome,123.0.0.0,OS X,10_15_7,null,"en-US,en;q=0.9,fr;q=0.8",nf243h,"<p>The attention questions vary in difficulty, but you must get at least some questions correct for us to pay you.</p>
    <p><b>Press the space bar to continue.</b></p>",,,,,,,,,
313, ,html-keyboard-response,15,8199,0.0-15.0,3,tonic G4,2024-04-29 15:59:13,70dd8527a7d03d02011aab09188cbbde,129.199.158.16,"Mozilla/5.0 (Macintosh; Intel Mac OS X 10_15_7) AppleWebKit/537.36 (KHTML, like Gecko) Chrome/123.0.0.0 Safari/537.36",Macintosh,Chrome,123.0.0.0,OS X,10_15_7,null,"en-US,en;q=0.9,fr;q=0.8",nf243h,"
    This part of the experiment should take <b>15-20 minutes</b>. 
    <p><b>Press the space bar to begin.</b></p>",,,,,,,,,
174, ,audio-keyboard-response,16,8607,0.0-16.0-0.0,3,tonic G4,2024-04-29 15:59:13,70dd8527a7d03d02011aab09188cbbde,129.199.158.16,"Mozilla/5.0 (Macintosh; Intel Mac OS X 10_15_7) AppleWebKit/537.36 (KHTML, like Gecko) Chrome/123.0.0.0 Safari/537.36",Macintosh,Chrome,123.0.0.0,OS X,10_15_7,null,"en-US,en;q=0.9,fr;q=0.8",nf243h,"[""exposure_4s_2.mp3""]",exposure,,exp_noresponse,,,,,,
650,1,audio-button-response,17,9287,0.0-16.0-1.0,3,tonic G4,2024-04-29 15:59:13,70dd8527a7d03d02011aab09188cbbde,129.199.158.16,"Mozilla/5.0 (Macintosh; Intel Mac OS X 10_15_7) AppleWebKit/537.36 (KHTML, like Gecko) Chrome/123.0.0.0 Safari/537.36",Macintosh,Chrome,123.0.0.0,OS X,10_15_7,null,"en-US,en;q=0.9,fr;q=0.8",nf243h,attn_length_easy_1.mp3,exposure,true,attncheck,,,,,,
540,1,audio-button-response,18,9827,0.0-16.0-2.0,3,tonic G4,2024-04-29 15:59:13,70dd8527a7d03d02011aab09188cbbde,129.199.158.16,"Mozilla/5.0 (Macintosh; Intel Mac OS X 10_15_7) AppleWebKit/537.36 (KHTML, like Gecko) Chrome/123.0.0.0 Safari/537.36",Macintosh,Chrome,123.0.0.0,OS X,10_15_7,null,"en-US,en;q=0.9,fr;q=0.8",nf243h,attn_length_easy_1.mp3,exposure,true,attncheck,,,,,,
279, ,audio-keyboard-response,19,10381,0.0-16.0-3.0,3,tonic G4,2024-04-29 15:59:13,70dd8527a7d03d02011aab09188cbbde,129.199.158.16,"Mozilla/5.0 (Macintosh; Intel Mac OS X 10_15_7) AppleWebKit/537.36 (KHTML, like Gecko) Chrome/123.0.0.0 Safari/537.36",Macintosh,Chrome,123.0.0.0,OS X,10_15_7,null,"en-US,en;q=0.9,fr;q=0.8",nf243h,"[""exposure_4s_28.mp3""]",exposure,,exp_noresponse,,,,,,
377,1,audio-button-response,20,10760,0.0-16.0-4.0,3,tonic G4,2024-04-29 15:59:13,70dd8527a7d03d02011aab09188cbbde,129.199.158.16,"Mozilla/5.0 (Macintosh; Intel Mac OS X 10_15_7) AppleWebKit/537.36 (KHTML, like Gecko) Chrome/123.0.0.0 Safari/537.36",Macintosh,Chrome,123.0.0.0,OS X,10_15_7,null,"en-US,en;q=0.9,fr;q=0.8",nf243h,attn_length_easy_1.mp3,exposure,true,attncheck,,,,,,
249, ,html-keyboard-response,21,11010,0.0-17.0,3,tonic G4,2024-04-29 15:59:13,70dd8527a7d03d02011aab09188cbbde,129.199.158.16,"Mozilla/5.0 (Macintosh; Intel Mac OS X 10_15_7) AppleWebKit/537.36 (KHTML, like Gecko) Chrome/123.0.0.0 Safari/537.36",Macintosh,Chrome,123.0.0.0,OS X,10_15_7,null,"en-US,en;q=0.9,fr;q=0.8",nf243h,"<p>You will now be asked to judge how similar some melodies are to what you have
    just listened to. </p>
    <p><b>Press the space bar to continue.</b></p>",,,,,,,,,
368, ,html-keyboard-response,22,11380,0.0-18.0,3,tonic G4,2024-04-29 15:59:13,70dd8527a7d03d02011aab09188cbbde,129.199.158.16,"Mozilla/5.0 (Macintosh; Intel Mac OS X 10_15_7) AppleWebKit/537.36 (KHTML, like Gecko) Chrome/123.0.0.0 Safari/537.36",Macintosh,Chrome,123.0.0.0,OS X,10_15_7,null,"en-US,en;q=0.9,fr;q=0.8",nf243h,"<p>The changes in the melodies are subtle. If you are not sure, go with your gut feeling.</p>
    <p><b>Press the space bar to continue.</b></p>",,,,,,,,,
964,4,audio-slider-response,23,12369,0.0-19.0-0.0,3,tonic G4,2024-04-29 15:59:13,70dd8527a7d03d02011aab09188cbbde,129.199.158.16,"Mozilla/5.0 (Macintosh; Intel Mac OS X 10_15_7) AppleWebKit/537.36 (KHTML, like Gecko) Chrome/123.0.0.0 Safari/537.36",Macintosh,Chrome,123.0.0.0,OS X,10_15_7,null,"en-US,en;q=0.9,fr;q=0.8",nf243h,agrammatical_6.mp3,grammar_learning,,,4,,,,,
493,4,audio-slider-response,24,12885,0.0-19.0-0.1,3,tonic G4,2024-04-29 15:59:13,70dd8527a7d03d02011aab09188cbbde,129.199.158.16,"Mozilla/5.0 (Macintosh; Intel Mac OS X 10_15_7) AppleWebKit/537.36 (KHTML, like Gecko) Chrome/123.0.0.0 Safari/537.36",Macintosh,Chrome,123.0.0.0,OS X,10_15_7,null,"en-US,en;q=0.9,fr;q=0.8",nf243h,agrammatical_3.mp3,grammar_learning,,,4,,,,,
499,4,audio-slider-response,25,13415,0.0-19.0-0.2,3,tonic G4,2024-04-29 15:59:13,70dd8527a7d03d02011aab09188cbbde,129.199.158.16,"Mozilla/5.0 (Macintosh; Intel Mac OS X 10_15_7) AppleWebKit/537.36 (KHTML, like Gecko) Chrome/123.0.0.0 Safari/537.36",Macintosh,Chrome,123.0.0.0,OS X,10_15_7,null,"en-US,en;q=0.9,fr;q=0.8",nf243h,grammatical_4.mp3,grammar_learning,,,4,,,,,
360,4,audio-slider-response,26,13804,0.0-19.0-0.3,3,tonic G4,2024-04-29 15:59:13,70dd8527a7d03d02011aab09188cbbde,129.199.158.16,"Mozilla/5.0 (Macintosh; Intel Mac OS X 10_15_7) AppleWebKit/537.36 (KHTML, like Gecko) Chrome/123.0.0.0 Safari/537.36",Macintosh,Chrome,123.0.0.0,OS X,10_15_7,null,"en-US,en;q=0.9,fr;q=0.8",nf243h,grammatical_7.mp3,grammar_learning,,,4,,,,,
337,4,audio-slider-response,27,14168,0.0-19.0-0.4,3,tonic G4,2024-04-29 15:59:13,70dd8527a7d03d02011aab09188cbbde,129.199.158.16,"Mozilla/5.0 (Macintosh; Intel Mac OS X 10_15_7) AppleWebKit/537.36 (KHTML, like Gecko) Chrome/123.0.0.0 Safari/537.36",Macintosh,Chrome,123.0.0.0,OS X,10_15_7,null,"en-US,en;q=0.9,fr;q=0.8",nf243h,agrammatical_8.mp3,grammar_learning,,,4,,,,,
180,4,audio-slider-response,28,14370,0.0-19.0-0.5,3,tonic G4,2024-04-29 15:59:13,70dd8527a7d03d02011aab09188cbbde,129.199.158.16,"Mozilla/5.0 (Macintosh; Intel Mac OS X 10_15_7) AppleWebKit/537.36 (KHTML, like Gecko) Chrome/123.0.0.0 Safari/537.36",Macintosh,Chrome,123.0.0.0,OS X,10_15_7,null,"en-US,en;q=0.9,fr;q=0.8",nf243h,grammatical_2.mp3,grammar_learning,,,4,,,,,
215,4,audio-slider-response,29,14584,0.0-19.0-0.6,3,tonic G4,2024-04-29 15:59:13,70dd8527a7d03d02011aab09188cbbde,129.199.158.16,"Mozilla/5.0 (Macintosh; Intel Mac OS X 10_15_7) AppleWebKit/537.36 (KHTML, like Gecko) Chrome/123.0.0.0 Safari/537.36",Macintosh,Chrome,123.0.0.0,OS X,10_15_7,null,"en-US,en;q=0.9,fr;q=0.8",nf243h,grammatical_1.mp3,grammar_learning,,,4,,,,,
157,4,audio-slider-response,30,14766,0.0-19.0-0.7,3,tonic G4,2024-04-29 15:59:13,70dd8527a7d03d02011aab09188cbbde,129.199.158.16,"Mozilla/5.0 (Macintosh; Intel Mac OS X 10_15_7) AppleWebKit/537.36 (KHTML, like Gecko) Chrome/123.0.0.0 Safari/537.36",Macintosh,Chrome,123.0.0.0,OS X,10_15_7,null,"en-US,en;q=0.9,fr;q=0.8",nf243h,grammatical_5.mp3,grammar_learning,,,4,,,,,
168,4,audio-slider-response,31,14958,0.0-19.0-0.8,3,tonic G4,2024-04-29 15:59:13,70dd8527a7d03d02011aab09188cbbde,129.199.158.16,"Mozilla/5.0 (Macintosh; Intel Mac OS X 10_15_7) AppleWebKit/537.36 (KHTML, like Gecko) Chrome/123.0.0.0 Safari/537.36",Macintosh,Chrome,123.0.0.0,OS X,10_15_7,null,"en-US,en;q=0.9,fr;q=0.8",nf243h,agrammatical_7.mp3,grammar_learning,,,4,,,,,
168,4,audio-slider-response,32,15148,0.0-19.0-0.9,3,tonic G4,2024-04-29 15:59:13,70dd8527a7d03d02011aab09188cbbde,129.199.158.16,"Mozilla/5.0 (Macintosh; Intel Mac OS X 10_15_7) AppleWebKit/537.36 (KHTML, like Gecko) Chrome/123.0.0.0 Safari/537.36",Macintosh,Chrome,123.0.0.0,OS X,10_15_7,null,"en-US,en;q=0.9,fr;q=0.8",nf243h,agrammatical_2.mp3,grammar_learning,,,4,,,,,
168,4,audio-slider-response,33,15342,0.0-19.0-0.10,3,tonic G4,2024-04-29 15:59:13,70dd8527a7d03d02011aab09188cbbde,129.199.158.16,"Mozilla/5.0 (Macintosh; Intel Mac OS X 10_15_7) AppleWebKit/537.36 (KHTML, like Gecko) Chrome/123.0.0.0 Safari/537.36",Macintosh,Chrome,123.0.0.0,OS X,10_15_7,null,"en-US,en;q=0.9,fr;q=0.8",nf243h,agrammatical_1.mp3,grammar_learning,,,4,,,,,
145,4,audio-slider-response,34,15518,0.0-19.0-0.11,3,tonic G4,2024-04-29 15:59:13,70dd8527a7d03d02011aab09188cbbde,129.199.158.16,"Mozilla/5.0 (Macintosh; Intel Mac OS X 10_15_7) AppleWebKit/537.36 (KHTML, like Gecko) Chrome/123.0.0.0 Safari/537.36",Macintosh,Chrome,123.0.0.0,OS X,10_15_7,null,"en-US,en;q=0.9,fr;q=0.8",nf243h,agrammatical_5.mp3,grammar_learning,,,4,,,,,
186,4,audio-slider-response,35,15733,0.0-19.0-0.12,3,tonic G4,2024-04-29 15:59:13,70dd8527a7d03d02011aab09188cbbde,129.199.158.16,"Mozilla/5.0 (Macintosh; Intel Mac OS X 10_15_7) AppleWebKit/537.36 (KHTML, like Gecko) Chrome/123.0.0.0 Safari/537.36",Macintosh,Chrome,123.0.0.0,OS X,10_15_7,null,"en-US,en;q=0.9,fr;q=0.8",nf243h,grammatical_6.mp3,grammar_learning,,,4,,,,,
139,4,audio-slider-response,36,15901,0.0-19.0-0.13,3,tonic G4,2024-04-29 15:59:13,70dd8527a7d03d02011aab09188cbbde,129.199.158.16,"Mozilla/5.0 (Macintosh; Intel Mac OS X 10_15_7) AppleWebKit/537.36 (KHTML, like Gecko) Chrome/123.0.0.0 Safari/537.36",Macintosh,Chrome,123.0.0.0,OS X,10_15_7,null,"en-US,en;q=0.9,fr;q=0.8",nf243h,grammatical_8.mp3,grammar_learning,,,4,,,,,
151,4,audio-slider-response,37,16081,0.0-19.0-0.14,3,tonic G4,2024-04-29 15:59:13,70dd8527a7d03d02011aab09188cbbde,129.199.158.16,"Mozilla/5.0 (Macintosh; Intel Mac OS X 10_15_7) AppleWebKit/537.36 (KHTML, like Gecko) Chrome/123.0.0.0 Safari/537.36",Macintosh,Chrome,123.0.0.0,OS X,10_15_7,null,"en-US,en;q=0.9,fr;q=0.8",nf243h,agrammatical_4.mp3,grammar_learning,,,4,,,,,
145,4,audio-slider-response,38,16252,0.0-19.0-0.15,3,tonic G4,2024-04-29 15:59:13,70dd8527a7d03d02011aab09188cbbde,129.199.158.16,"Mozilla/5.0 (Macintosh; Intel Mac OS X 10_15_7) AppleWebKit/537.36 (KHTML, like Gecko) Chrome/123.0.0.0 Safari/537.36",Macintosh,Chrome,123.0.0.0,OS X,10_15_7,null,"en-US,en;q=0.9,fr;q=0.8",nf243h,grammatical_3.mp3,grammar_learning,,,4,,,,,
761,"{""prolific_id"":""""}",survey-html-form,39,17015,0.0-20.0,3,tonic G4,2024-04-29 15:59:13,70dd8527a7d03d02011aab09188cbbde,129.199.158.16,"Mozilla/5.0 (Macintosh; Intel Mac OS X 10_15_7) AppleWebKit/537.36 (KHTML, like Gecko) Chrome/123.0.0.0 Safari/537.36",Macintosh,Chrome,123.0.0.0,OS X,10_15_7,null,"en-US,en;q=0.9,fr;q=0.8",nf243h,,,,,,,,,,
519, ,html-keyboard-response,40,17535,0.0-21.0,3,tonic G4,2024-04-29 15:59:13,70dd8527a7d03d02011aab09188cbbde,129.199.158.16,"Mozilla/5.0 (Macintosh; Intel Mac OS X 10_15_7) AppleWebKit/537.36 (KHTML, like Gecko) Chrome/123.0.0.0 Safari/537.36",Macintosh,Chrome,123.0.0.0,OS X,10_15_7,null,"en-US,en;q=0.9,fr;q=0.8",nf243h,"<p>In this part of the experiment, you will presented with two melodies in succession. 
    <p><b>Press the space bar to continue.</b></p>",,,,,,,,,
357, ,html-keyboard-response,41,17894,0.0-22.0,3,tonic G4,2024-04-29 15:59:13,70dd8527a7d03d02011aab09188cbbde,129.199.158.16,"Mozilla/5.0 (Macintosh; Intel Mac OS X 10_15_7) AppleWebKit/537.36 (KHTML, like Gecko) Chrome/123.0.0.0 Safari/537.36",Macintosh,Chrome,123.0.0.0,OS X,10_15_7,null,"en-US,en;q=0.9,fr;q=0.8",nf243h,"<p>The melodies are nearly identical, but have either an added accent or one different note. </p>
    <p><b>Press the space bar to continue.</b></p>",,,,,,,,,
271, ,html-keyboard-response,42,18166,0.0-23.0,3,tonic G4,2024-04-29 15:59:13,70dd8527a7d03d02011aab09188cbbde,129.199.158.16,"Mozilla/5.0 (Macintosh; Intel Mac OS X 10_15_7) AppleWebKit/537.36 (KHTML, like Gecko) Chrome/123.0.0.0 Safari/537.36",Macintosh,Chrome,123.0.0.0,OS X,10_15_7,null,"en-US,en;q=0.9,fr;q=0.8",nf243h,"<p>    Please choose the melody that <b>sounds better to you.</b></p>
    <p><b>Press the space bar to continue.</b></p>",,,,,,,,,
449, ,html-keyboard-response,43,18617,0.0-24.0,3,tonic G4,2024-04-29 15:59:13,70dd8527a7d03d02011aab09188cbbde,129.199.158.16,"Mozilla/5.0 (Macintosh; Intel Mac OS X 10_15_7) AppleWebKit/537.36 (KHTML, like Gecko) Chrome/123.0.0.0 Safari/537.36",Macintosh,Chrome,123.0.0.0,OS X,10_15_7,null,"en-US,en;q=0.9,fr;q=0.8",nf243h,There are <b>32 questions</b> in this section.,,,,,,,,,
1027,f,audio-keyboard-response,44,19673,0.0-25.0-0.0,3,tonic G4,2024-04-29 15:59:13,70dd8527a7d03d02011aab09188cbbde,129.199.158.16,"Mozilla/5.0 (Macintosh; Intel Mac OS X 10_15_7) AppleWebKit/537.36 (KHTML, like Gecko) Chrome/123.0.0.0 Safari/537.36",Macintosh,Chrome,123.0.0.0,OS X,10_15_7,null,"en-US,en;q=0.9,fr;q=0.8",nf243h,fc_IC_accent_5_4.mp3,forced_choice,,,,NA,j,false,false,
644,f,audio-keyboard-response,45,20347,0.0-25.0-0.1,3,tonic G4,2024-04-29 15:59:13,70dd8527a7d03d02011aab09188cbbde,129.199.158.16,"Mozilla/5.0 (Macintosh; Intel Mac OS X 10_15_7) AppleWebKit/537.36 (KHTML, like Gecko) Chrome/123.0.0.0 Safari/537.36",Macintosh,Chrome,123.0.0.0,OS X,10_15_7,null,"en-US,en;q=0.9,fr;q=0.8",nf243h,fc_accents_56_2.mp3,forced_choice,,,,j,NA,false,false,
41,j,audio-keyboard-response,46,20413,0.0-25.0-0.2,3,tonic G4,2024-04-29 15:59:13,70dd8527a7d03d02011aab09188cbbde,129.199.158.16,"Mozilla/5.0 (Macintosh; Intel Mac OS X 10_15_7) AppleWebKit/537.36 (KHTML, like Gecko) Chrome/123.0.0.0 Safari/537.36",Macintosh,Chrome,123.0.0.0,OS X,10_15_7,null,"en-US,en;q=0.9,fr;q=0.8",nf243h,fc_IC_accent_3_2.mp3,forced_choice,,,,NA,f,false,false,
122,f,audio-keyboard-response,47,20552,0.0-25.0-0.3,3,tonic G4,2024-04-29 15:59:13,70dd8527a7d03d02011aab09188cbbde,129.199.158.16,"Mozilla/5.0 (Macintosh; Intel Mac OS X 10_15_7) AppleWebKit/537.36 (KHTML, like Gecko) Chrome/123.0.0.0 Safari/537.36",Macintosh,Chrome,123.0.0.0,OS X,10_15_7,null,"en-US,en;q=0.9,fr;q=0.8",nf243h,fc_IC_default_5_1.mp3,forced_choice,,,,NA,j,false,false,
46,j,audio-keyboard-response,48,20615,0.0-25.0-0.4,3,tonic G4,2024-04-29 15:59:13,70dd8527a7d03d02011aab09188cbbde,129.199.158.16,"Mozilla/5.0 (Macintosh; Intel Mac OS X 10_15_7) AppleWebKit/537.36 (KHTML, like Gecko) Chrome/123.0.0.0 Safari/537.36",Macintosh,Chrome,123.0.0.0,OS X,10_15_7,null,"en-US,en;q=0.9,fr;q=0.8",nf243h,fc_IC_default_3_4.mp3,forced_choice,,,,NA,f,false,false,
75,f,audio-keyboard-response,49,20708,0.0-25.0-0.5,3,tonic G4,2024-04-29 15:59:13,70dd8527a7d03d02011aab09188cbbde,129.199.158.16,"Mozilla/5.0 (Macintosh; Intel Mac OS X 10_15_7) AppleWebKit/537.36 (KHTML, like Gecko) Chrome/123.0.0.0 Safari/537.36",Macintosh,Chrome,123.0.0.0,OS X,10_15_7,null,"en-US,en;q=0.9,fr;q=0.8",nf243h,fc_accents_56_3.mp3,forced_choice,,,,j,NA,false,false,
70,j,audio-keyboard-response,50,20798,0.0-25.0-0.6,3,tonic G4,2024-04-29 15:59:13,70dd8527a7d03d02011aab09188cbbde,129.199.158.16,"Mozilla/5.0 (Macintosh; Intel Mac OS X 10_15_7) AppleWebKit/537.36 (KHTML, like Gecko) Chrome/123.0.0.0 Safari/537.36",Macintosh,Chrome,123.0.0.0,OS X,10_15_7,null,"en-US,en;q=0.9,fr;q=0.8",nf243h,fc_IC_default_3_3.mp3,forced_choice,,,,NA,f,false,false,
70,f,audio-keyboard-response,51,20865,0.0-25.0-0.7,3,tonic G4,2024-04-29 15:59:13,70dd8527a7d03d02011aab09188cbbde,129.199.158.16,"Mozilla/5.0 (Macintosh; Intel Mac OS X 10_15_7) AppleWebKit/537.36 (KHTML, like Gecko) Chrome/123.0.0.0 Safari/537.36",Macintosh,Chrome,123.0.0.0,OS X,10_15_7,null,"en-US,en;q=0.9,fr;q=0.8",nf243h,fc_accents_54_4.mp3,forced_choice,,,,j,NA,false,false,
41,j,audio-keyboard-response,52,20934,0.0-25.0-0.8,3,tonic G4,2024-04-29 15:59:13,70dd8527a7d03d02011aab09188cbbde,129.199.158.16,"Mozilla/5.0 (Macintosh; Intel Mac OS X 10_15_7) AppleWebKit/537.36 (KHTML, like Gecko) Chrome/123.0.0.0 Safari/537.36",Macintosh,Chrome,123.0.0.0,OS X,10_15_7,null,"en-US,en;q=0.9,fr;q=0.8",nf243h,fc_accents_32_4.mp3,forced_choice,,,,j,NA,true,false,
70,f,audio-keyboard-response,53,21023,0.0-25.0-0.9,3,tonic G4,2024-04-29 15:59:13,70dd8527a7d03d02011aab09188cbbde,129.199.158.16,"Mozilla/5.0 (Macintosh; Intel Mac OS X 10_15_7) AppleWebKit/537.36 (KHTML, like Gecko) Chrome/123.0.0.0 Safari/537.36",Macintosh,Chrome,123.0.0.0,OS X,10_15_7,null,"en-US,en;q=0.9,fr;q=0.8",nf243h,fc_accents_34_2.mp3,forced_choice,,,,j,NA,false,false,
64,j,audio-keyboard-response,54,21113,0.0-25.0-0.10,3,tonic G4,2024-04-29 15:59:13,70dd8527a7d03d02011aab09188cbbde,129.199.158.16,"Mozilla/5.0 (Macintosh; Intel Mac OS X 10_15_7) AppleWebKit/537.36 (KHTML, like Gecko) Chrome/123.0.0.0 Safari/537.36",Macintosh,Chrome,123.0.0.0,OS X,10_15_7,null,"en-US,en;q=0.9,fr;q=0.8",nf243h,fc_IC_default_5_3.mp3,forced_choice,,,,NA,j,false,true,
46,f,audio-keyboard-response,55,21182,0.0-25.0-0.11,3,tonic G4,2024-04-29 15:59:13,70dd8527a7d03d02011aab09188cbbde,129.199.158.16,"Mozilla/5.0 (Macintosh; Intel Mac OS X 10_15_7) AppleWebKit/537.36 (KHTML, like Gecko) Chrome/123.0.0.0 Safari/537.36",Macintosh,Chrome,123.0.0.0,OS X,10_15_7,null,"en-US,en;q=0.9,fr;q=0.8",nf243h,fc_IC_default_3_1.mp3,forced_choice,,,,NA,f,false,true,
52,j,audio-keyboard-response,56,21249,0.0-25.0-0.12,3,tonic G4,2024-04-29 15:59:13,70dd8527a7d03d02011aab09188cbbde,129.199.158.16,"Mozilla/5.0 (Macintosh; Intel Mac OS X 10_15_7) AppleWebKit/537.36 (KHTML, like Gecko) Chrome/123.0.0.0 Safari/537.36",Macintosh,Chrome,123.0.0.0,OS X,10_15_7,null,"en-US,en;q=0.9,fr;q=0.8",nf243h,fc_accents_34_1.mp3,forced_choice,,,,j,NA,true,false,
52,f,audio-keyboard-response,57,21317,0.0-25.0-0.13,3,tonic G4,2024-04-29 15:59:13,70dd8527a7d03d02011aab09188cbbde,129.199.158.16,"Mozilla/5.0 (Macintosh; Intel Mac OS X 10_15_7) AppleWebKit/537.36 (KHTML, like Gecko) Chrome/123.0.0.0 Safari/537.36",Macintosh,Chrome,123.0.0.0,OS X,10_15_7,null,"en-US,en;q=0.9,fr;q=0.8",nf243h,fc_accents_56_1.mp3,forced_choice,,,,j,NA,false,false,
70,j,audio-keyboard-response,58,21405,0.0-25.0-0.14,3,tonic G4,2024-04-29 15:59:13,70dd8527a7d03d02011aab09188cbbde,129.199.158.16,"Mozilla/5.0 (Macintosh; Intel Mac OS X 10_15_7) AppleWebKit/537.36 (KHTML, like Gecko) Chrome/123.0.0.0 Safari/537.36",Macintosh,Chrome,123.0.0.0,OS X,10_15_7,null,"en-US,en;q=0.9,fr;q=0.8",nf243h,fc_IC_default_3_2.mp3,forced_choice,,,,NA,f,false,false,
70,f,audio-keyboard-response,59,21496,0.0-25.0-0.15,3,tonic G4,2024-04-29 15:59:13,70dd8527a7d03d02011aab09188cbbde,129.199.158.16,"Mozilla/5.0 (Macintosh; Intel Mac OS X 10_15_7) AppleWebKit/537.36 (KHTML, like Gecko) Chrome/123.0.0.0 Safari/537.36",Macintosh,Chrome,123.0.0.0,OS X,10_15_7,null,"en-US,en;q=0.9,fr;q=0.8",nf243h,fc_IC_default_5_2.mp3,forced_choice,,,,NA,j,false,false,
46,j,audio-keyboard-response,60,21562,0.0-25.0-0.16,3,tonic G4,2024-04-29 15:59:13,70dd8527a7d03d02011aab09188cbbde,129.199.158.16,"Mozilla/5.0 (Macintosh; Intel Mac OS X 10_15_7) AppleWebKit/537.36 (KHTML, like Gecko) Chrome/123.0.0.0 Safari/537.36",Macintosh,Chrome,123.0.0.0,OS X,10_15_7,null,"en-US,en;q=0.9,fr;q=0.8",nf243h,fc_accents_54_3.mp3,forced_choice,,,,j,NA,true,false,
46,f,audio-keyboard-response,61,21629,0.0-25.0-0.17,3,tonic G4,2024-04-29 15:59:13,70dd8527a7d03d02011aab09188cbbde,129.199.158.16,"Mozilla/5.0 (Macintosh; Intel Mac OS X 10_15_7) AppleWebKit/537.36 (KHTML, like Gecko) Chrome/123.0.0.0 Safari/537.36",Macintosh,Chrome,123.0.0.0,OS X,10_15_7,null,"en-US,en;q=0.9,fr;q=0.8",nf243h,fc_IC_accent_3_1.mp3,forced_choice,,,,NA,f,false,true,
52,j,audio-keyboard-response,62,21695,0.0-25.0-0.18,3,tonic G4,2024-04-29 15:59:13,70dd8527a7d03d02011aab09188cbbde,129.199.158.16,"Mozilla/5.0 (Macintosh; Intel Mac OS X 10_15_7) AppleWebKit/537.36 (KHTML, like Gecko) Chrome/123.0.0.0 Safari/537.36",Macintosh,Chrome,123.0.0.0,OS X,10_15_7,null,"en-US,en;q=0.9,fr;q=0.8",nf243h,fc_IC_default_5_4.mp3,forced_choice,,,,NA,j,false,true,
81,f,audio-keyboard-response,63,21788,0.0-25.0-0.19,3,tonic G4,2024-04-29 15:59:13,70dd8527a7d03d02011aab09188cbbde,129.199.158.16,"Mozilla/5.0 (Macintosh; Intel Mac OS X 10_15_7) AppleWebKit/537.36 (KHTML, like Gecko) Chrome/123.0.0.0 Safari/537.36",Macintosh,Chrome,123.0.0.0,OS X,10_15_7,null,"en-US,en;q=0.9,fr;q=0.8",nf243h,fc_accents_54_1.mp3,forced_choice,,,,j,NA,false,false,
70,j,audio-keyboard-response,64,21879,0.0-25.0-0.20,3,tonic G4,2024-04-29 15:59:13,70dd8527a7d03d02011aab09188cbbde,129.199.158.16,"Mozilla/5.0 (Macintosh; Intel Mac OS X 10_15_7) AppleWebKit/537.36 (KHTML, like Gecko) Chrome/123.0.0.0 Safari/537.36",Macintosh,Chrome,123.0.0.0,OS X,10_15_7,null,"en-US,en;q=0.9,fr;q=0.8",nf243h,fc_accents_34_4.mp3,forced_choice,,,,j,NA,true,false,
70,f,audio-keyboard-response,65,21970,0.0-25.0-0.21,3,tonic G4,2024-04-29 15:59:13,70dd8527a7d03d02011aab09188cbbde,129.199.158.16,"Mozilla/5.0 (Macintosh; Intel Mac OS X 10_15_7) AppleWebKit/537.36 (KHTML, like Gecko) Chrome/123.0.0.0 Safari/537.36",Macintosh,Chrome,123.0.0.0,OS X,10_15_7,null,"en-US,en;q=0.9,fr;q=0.8",nf243h,fc_IC_accent_3_3.mp3,forced_choice,,,,NA,f,false,true,
41,j,audio-keyboard-response,66,22011,0.0-25.0-0.22,3,tonic G4,2024-04-29 15:59:13,70dd8527a7d03d02011aab09188cbbde,129.199.158.16,"Mozilla/5.0 (Macintosh; Intel Mac OS X 10_15_7) AppleWebKit/537.36 (KHTML, like Gecko) Chrome/123.0.0.0 Safari/537.36",Macintosh,Chrome,123.0.0.0,OS X,10_15_7,null,"en-US,en;q=0.9,fr;q=0.8",nf243h,fc_accents_56_4.mp3,forced_choice,,,,j,NA,true,false,
139,j,audio-keyboard-response,67,22176,0.0-25.0-0.23,3,tonic G4,2024-04-29 15:59:13,70dd8527a7d03d02011aab09188cbbde,129.199.158.16,"Mozilla/5.0 (Macintosh; Intel Mac OS X 10_15_7) AppleWebKit/537.36 (KHTML, like Gecko) Chrome/123.0.0.0 Safari/537.36",Macintosh,Chrome,123.0.0.0,OS X,10_15_7,null,"en-US,en;q=0.9,fr;q=0.8",nf243h,fc_IC_accent_5_3.mp3,forced_choice,,,,NA,j,false,true,
64,f,audio-keyboard-response,68,22259,0.0-25.0-0.24,3,tonic G4,2024-04-29 15:59:13,70dd8527a7d03d02011aab09188cbbde,129.199.158.16,"Mozilla/5.0 (Macintosh; Intel Mac OS X 10_15_7) AppleWebKit/537.36 (KHTML, like Gecko) Chrome/123.0.0.0 Safari/537.36",Macintosh,Chrome,123.0.0.0,OS X,10_15_7,null,"en-US,en;q=0.9,fr;q=0.8",nf243h,fc_IC_accent_3_4.mp3,forced_choice,,,,NA,f,false,true,
99,j,audio-keyboard-response,69,22374,0.0-25.0-0.25,3,tonic G4,2024-04-29 15:59:13,70dd8527a7d03d02011aab09188cbbde,129.199.158.16,"Mozilla/5.0 (Macintosh; Intel Mac OS X 10_15_7) AppleWebKit/537.36 (KHTML, like Gecko) Chrome/123.0.0.0 Safari/537.36",Macintosh,Chrome,123.0.0.0,OS X,10_15_7,null,"en-US,en;q=0.9,fr;q=0.8",nf243h,fc_accents_54_2.mp3,forced_choice,,,,j,NA,true,false,
41,f,audio-keyboard-response,70,22441,0.0-25.0-0.26,3,tonic G4,2024-04-29 15:59:13,70dd8527a7d03d02011aab09188cbbde,129.199.158.16,"Mozilla/5.0 (Macintosh; Intel Mac OS X 10_15_7) AppleWebKit/537.36 (KHTML, like Gecko) Chrome/123.0.0.0 Safari/537.36",Macintosh,Chrome,123.0.0.0,OS X,10_15_7,null,"en-US,en;q=0.9,fr;q=0.8",nf243h,fc_IC_accent_5_2.mp3,forced_choice,,,,NA,j,false,false,
70,j,audio-keyboard-response,71,22530,0.0-25.0-0.27,3,tonic G4,2024-04-29 15:59:13,70dd8527a7d03d02011aab09188cbbde,129.199.158.16,"Mozilla/5.0 (Macintosh; Intel Mac OS X 10_15_7) AppleWebKit/537.36 (KHTML, like Gecko) Chrome/123.0.0.0 Safari/537.36",Macintosh,Chrome,123.0.0.0,OS X,10_15_7,null,"en-US,en;q=0.9,fr;q=0.8",nf243h,fc_IC_accent_5_1.mp3,forced_choice,,,,NA,j,false,true,
145,j,audio-keyboard-response,72,22697,0.0-25.0-0.28,3,tonic G4,2024-04-29 15:59:13,70dd8527a7d03d02011aab09188cbbde,129.199.158.16,"Mozilla/5.0 (Macintosh; Intel Mac OS X 10_15_7) AppleWebKit/537.36 (KHTML, like Gecko) Chrome/123.0.0.0 Safari/537.36",Macintosh,Chrome,123.0.0.0,OS X,10_15_7,null,"en-US,en;q=0.9,fr;q=0.8",nf243h,fc_accents_34_3.mp3,forced_choice,,,,j,NA,true,false,
81,f,audio-keyboard-response,73,22784,0.0-25.0-0.29,3,tonic G4,2024-04-29 15:59:13,70dd8527a7d03d02011aab09188cbbde,129.199.158.16,"Mozilla/5.0 (Macintosh; Intel Mac OS X 10_15_7) AppleWebKit/537.36 (KHTML, like Gecko) Chrome/123.0.0.0 Safari/537.36",Macintosh,Chrome,123.0.0.0,OS X,10_15_7,null,"en-US,en;q=0.9,fr;q=0.8",nf243h,fc_accents_32_1.mp3,forced_choice,,,,j,NA,false,false,
104,j,audio-keyboard-response,74,22912,0.0-25.0-0.30,3,tonic G4,2024-04-29 15:59:13,70dd8527a7d03d02011aab09188cbbde,129.199.158.16,"Mozilla/5.0 (Macintosh; Intel Mac OS X 10_15_7) AppleWebKit/537.36 (KHTML, like Gecko) Chrome/123.0.0.0 Safari/537.36",Macintosh,Chrome,123.0.0.0,OS X,10_15_7,null,"en-US,en;q=0.9,fr;q=0.8",nf243h,fc_accents_32_3.mp3,forced_choice,,,,j,NA,true,false,
