rt,response,trial_type,trial_index,time_elapsed,internal_node_id,run_id,condition,recorded_at,source_code_version,ip,user_agent,device,browser,browser_version,platform,platform_version,referer,accept_language,subject,stimulus,task,correct,subtask,slider_start,accent,high_IC,accent_chosen,high_IC_chosen,question_order
10935,"{""prolific_id"":""663fd4658572150cc2416c27""}",survey-html-form,0,10936,0.0-0.0,18,tonic E5,2024-06-02 16:07:12,ecb3e64ed8cd71acc3b73d1b8ab0c1b0,45.19.163.72,"Mozilla/5.0 (Windows NT 10.0; Win64; x64) AppleWebKit/537.36 (KHTML, like Gecko) Chrome/125.0.0.0 Safari/537.36",WebKit,Chrome,125.0.0.0,Windows,10.0,https://app.prolific.com/,"en-US,en;q=0.9",xk6t6z,,,,,,,,,,
3354, ,html-keyboard-response,1,14292,0.0-1.0,18,tonic E5,2024-06-02 16:07:12,ecb3e64ed8cd71acc3b73d1b8ab0c1b0,45.19.163.72,"Mozilla/5.0 (Windows NT 10.0; Win64; x64) AppleWebKit/537.36 (KHTML, like Gecko) Chrome/125.0.0.0 Safari/537.36",WebKit,Chrome,125.0.0.0,Windows,10.0,https://app.prolific.com/,"en-US,en;q=0.9",xk6t6z,"
    <p>Please complete the experiment in a quiet place.
      We highly recommend using headphones.</p>

    </p align = 'justify'> <b>Press the space bar to proceed.</b> </p>",,,,,,,,,
10767, ,html-keyboard-response,2,25060,0.0-2.0,18,tonic E5,2024-06-02 16:07:12,ecb3e64ed8cd71acc3b73d1b8ab0c1b0,45.19.163.72,"Mozilla/5.0 (Windows NT 10.0; Win64; x64) AppleWebKit/537.36 (KHTML, like Gecko) Chrome/125.0.0.0 Safari/537.36",WebKit,Chrome,125.0.0.0,Windows,10.0,https://app.prolific.com/,"en-US,en;q=0.9",xk6t6z,"
    <p>A series of soundchecks will now be played to help you adjust the volume
      to a comfortable level. </p>

    </p align = 'justify'> <b>Press the space bar to proceed.</b> </p>",,,,,,,,,
3739,1,audio-button-response,3,29111,0.0-3.0-0.0,18,tonic E5,2024-06-02 16:07:12,ecb3e64ed8cd71acc3b73d1b8ab0c1b0,45.19.163.72,"Mozilla/5.0 (Windows NT 10.0; Win64; x64) AppleWebKit/537.36 (KHTML, like Gecko) Chrome/125.0.0.0 Safari/537.36",WebKit,Chrome,125.0.0.0,Windows,10.0,https://app.prolific.com/,"en-US,en;q=0.9",xk6t6z,grammatical_1.mp3,,,,,,,,,
16236, ,html-keyboard-response,4,45348,0.0-4.0,18,tonic E5,2024-06-02 16:07:12,ecb3e64ed8cd71acc3b73d1b8ab0c1b0,45.19.163.72,"Mozilla/5.0 (Windows NT 10.0; Win64; x64) AppleWebKit/537.36 (KHTML, like Gecko) Chrome/125.0.0.0 Safari/537.36",WebKit,Chrome,125.0.0.0,Windows,10.0,https://app.prolific.com/,"en-US,en;q=0.9",xk6t6z,"<p width = 300 px>
    You will now hear two melodies in succession. 
    The notes in each melody are the same, but there is an accent on one note for one of the melodies. 
    <b>Listen for which melody has the accent.</b>
    </p>
    
    Press the space bar to continue.",,,,,,,,,
2159, ,html-keyboard-response,5,47508,0.0-5.0,18,tonic E5,2024-06-02 16:07:12,ecb3e64ed8cd71acc3b73d1b8ab0c1b0,45.19.163.72,"Mozilla/5.0 (Windows NT 10.0; Win64; x64) AppleWebKit/537.36 (KHTML, like Gecko) Chrome/125.0.0.0 Safari/537.36",WebKit,Chrome,125.0.0.0,Windows,10.0,https://app.prolific.com/,"en-US,en;q=0.9",xk6t6z,"<p width = 300 px>
    <b>You must score at least 2/3 to proceed with the experiment.</b>
    </p>
    
    Press the space bar to continue.",,,,,,,,,
13920,0,audio-button-response,6,61542,0.0-6.0,18,tonic E5,2024-06-02 16:07:12,ecb3e64ed8cd71acc3b73d1b8ab0c1b0,45.19.163.72,"Mozilla/5.0 (Windows NT 10.0; Win64; x64) AppleWebKit/537.36 (KHTML, like Gecko) Chrome/125.0.0.0 Safari/537.36",WebKit,Chrome,125.0.0.0,Windows,10.0,https://app.prolific.com/,"en-US,en;q=0.9",xk6t6z,fc_accents_32_1.mp3,soundcheck,false,,,,,,,
1117, ,html-keyboard-response,7,62660,0.0-7.0,18,tonic E5,2024-06-02 16:07:12,ecb3e64ed8cd71acc3b73d1b8ab0c1b0,45.19.163.72,"Mozilla/5.0 (Windows NT 10.0; Win64; x64) AppleWebKit/537.36 (KHTML, like Gecko) Chrome/125.0.0.0 Safari/537.36",WebKit,Chrome,125.0.0.0,Windows,10.0,https://app.prolific.com/,"en-US,en;q=0.9",xk6t6z,<p>Incorrect.</p> Press the space bar to continue.,,,,,,,,,
7029,1,audio-button-response,8,69809,0.0-8.0,18,tonic E5,2024-06-02 16:07:12,ecb3e64ed8cd71acc3b73d1b8ab0c1b0,45.19.163.72,"Mozilla/5.0 (Windows NT 10.0; Win64; x64) AppleWebKit/537.36 (KHTML, like Gecko) Chrome/125.0.0.0 Safari/537.36",WebKit,Chrome,125.0.0.0,Windows,10.0,https://app.prolific.com/,"en-US,en;q=0.9",xk6t6z,fc_accents_56_4.mp3,soundcheck,true,,,,,,,
994, ,html-keyboard-response,9,70804,0.0-9.0,18,tonic E5,2024-06-02 16:07:12,ecb3e64ed8cd71acc3b73d1b8ab0c1b0,45.19.163.72,"Mozilla/5.0 (Windows NT 10.0; Win64; x64) AppleWebKit/537.36 (KHTML, like Gecko) Chrome/125.0.0.0 Safari/537.36",WebKit,Chrome,125.0.0.0,Windows,10.0,https://app.prolific.com/,"en-US,en;q=0.9",xk6t6z,<p>Correct!</p> Press the space bar to continue.,,,,,,,,,
5899,1,audio-button-response,10,76832,0.0-10.0,18,tonic E5,2024-06-02 16:07:12,ecb3e64ed8cd71acc3b73d1b8ab0c1b0,45.19.163.72,"Mozilla/5.0 (Windows NT 10.0; Win64; x64) AppleWebKit/537.36 (KHTML, like Gecko) Chrome/125.0.0.0 Safari/537.36",WebKit,Chrome,125.0.0.0,Windows,10.0,https://app.prolific.com/,"en-US,en;q=0.9",xk6t6z,fc_accents_54_4.mp3,soundcheck,true,,,,,,,
979, ,html-keyboard-response,11,77812,0.0-11.0,18,tonic E5,2024-06-02 16:07:12,ecb3e64ed8cd71acc3b73d1b8ab0c1b0,45.19.163.72,"Mozilla/5.0 (Windows NT 10.0; Win64; x64) AppleWebKit/537.36 (KHTML, like Gecko) Chrome/125.0.0.0 Safari/537.36",WebKit,Chrome,125.0.0.0,Windows,10.0,https://app.prolific.com/,"en-US,en;q=0.9",xk6t6z,<p>Correct!</p> Press the space bar to continue.,,,,,,,,,
13855, ,html-keyboard-response,12,91668,0.0-12.0,18,tonic E5,2024-06-02 16:07:12,ecb3e64ed8cd71acc3b73d1b8ab0c1b0,45.19.163.72,"Mozilla/5.0 (Windows NT 10.0; Win64; x64) AppleWebKit/537.36 (KHTML, like Gecko) Chrome/125.0.0.0 Safari/537.36",WebKit,Chrome,125.0.0.0,Windows,10.0,https://app.prolific.com/,"en-US,en;q=0.9",xk6t6z,"If you got <b>less than 2/3</b> of the previous soundcheck questions correct, <b>we unfortunately cannot use your data or pay you</b>. Please exit the experiment now.
    
    <p>If you got <b>more than 2/3</b> correct, press the space bar to continue</p>.",,,,,,,,,
3391, ,html-keyboard-response,13,95060,0.0-13.0,18,tonic E5,2024-06-02 16:07:12,ecb3e64ed8cd71acc3b73d1b8ab0c1b0,45.19.163.72,"Mozilla/5.0 (Windows NT 10.0; Win64; x64) AppleWebKit/537.36 (KHTML, like Gecko) Chrome/125.0.0.0 Safari/537.36",WebKit,Chrome,125.0.0.0,Windows,10.0,https://app.prolific.com/,"en-US,en;q=0.9",xk6t6z,"<p>Please listen carefully to the following set of melodies. 
      You will occassionally be asked some basic questions about some of the melodies to check your attention level. </p>
    <p><b>Press the space bar to continue.</b></p>",,,,,,,,,
4432, ,html-keyboard-response,14,99493,0.0-14.0,18,tonic E5,2024-06-02 16:07:12,ecb3e64ed8cd71acc3b73d1b8ab0c1b0,45.19.163.72,"Mozilla/5.0 (Windows NT 10.0; Win64; x64) AppleWebKit/537.36 (KHTML, like Gecko) Chrome/125.0.0.0 Safari/537.36",WebKit,Chrome,125.0.0.0,Windows,10.0,https://app.prolific.com/,"en-US,en;q=0.9",xk6t6z,"<p>The attention questions vary in difficulty, but you must get at least some questions correct for us to pay you.</p>
    <p><b>Press the space bar to continue.</b></p>",,,,,,,,,
2127, ,html-keyboard-response,15,101620,0.0-15.0,18,tonic E5,2024-06-02 16:07:12,ecb3e64ed8cd71acc3b73d1b8ab0c1b0,45.19.163.72,"Mozilla/5.0 (Windows NT 10.0; Win64; x64) AppleWebKit/537.36 (KHTML, like Gecko) Chrome/125.0.0.0 Safari/537.36",WebKit,Chrome,125.0.0.0,Windows,10.0,https://app.prolific.com/,"en-US,en;q=0.9",xk6t6z,"
    This part of the experiment should take <b>15-20 minutes</b>. 
    <p><b>Press the space bar to begin.</b></p>",,,,,,,,,
null,null,audio-keyboard-response,16,124910,0.0-16.0-0.0,18,tonic E5,2024-06-02 16:07:12,ecb3e64ed8cd71acc3b73d1b8ab0c1b0,45.19.163.72,"Mozilla/5.0 (Windows NT 10.0; Win64; x64) AppleWebKit/537.36 (KHTML, like Gecko) Chrome/125.0.0.0 Safari/537.36",WebKit,Chrome,125.0.0.0,Windows,10.0,https://app.prolific.com/,"en-US,en;q=0.9",xk6t6z,"[""exposure_4s_18.mp3""]",exposure,,exp_noresponse,,,,,,
null,null,audio-keyboard-response,17,149304,0.0-16.0-1.0,18,tonic E5,2024-06-02 16:07:12,ecb3e64ed8cd71acc3b73d1b8ab0c1b0,45.19.163.72,"Mozilla/5.0 (Windows NT 10.0; Win64; x64) AppleWebKit/537.36 (KHTML, like Gecko) Chrome/125.0.0.0 Safari/537.36",WebKit,Chrome,125.0.0.0,Windows,10.0,https://app.prolific.com/,"en-US,en;q=0.9",xk6t6z,"[""exposure_4s_6.mp3""]",exposure,,exp_noresponse,,,,,,
null,null,audio-keyboard-response,18,174368,0.0-16.0-2.0,18,tonic E5,2024-06-02 16:07:12,ecb3e64ed8cd71acc3b73d1b8ab0c1b0,45.19.163.72,"Mozilla/5.0 (Windows NT 10.0; Win64; x64) AppleWebKit/537.36 (KHTML, like Gecko) Chrome/125.0.0.0 Safari/537.36",WebKit,Chrome,125.0.0.0,Windows,10.0,https://app.prolific.com/,"en-US,en;q=0.9",xk6t6z,"[""exposure_4s_19.mp3""]",exposure,,exp_noresponse,,,,,,
null,null,audio-keyboard-response,19,198710,0.0-16.0-3.0,18,tonic E5,2024-06-02 16:07:12,ecb3e64ed8cd71acc3b73d1b8ab0c1b0,45.19.163.72,"Mozilla/5.0 (Windows NT 10.0; Win64; x64) AppleWebKit/537.36 (KHTML, like Gecko) Chrome/125.0.0.0 Safari/537.36",WebKit,Chrome,125.0.0.0,Windows,10.0,https://app.prolific.com/,"en-US,en;q=0.9",xk6t6z,"[""exposure_4s_29.mp3""]",exposure,,exp_noresponse,,,,,,
null,null,audio-keyboard-response,20,221923,0.0-16.0-4.0,18,tonic E5,2024-06-02 16:07:12,ecb3e64ed8cd71acc3b73d1b8ab0c1b0,45.19.163.72,"Mozilla/5.0 (Windows NT 10.0; Win64; x64) AppleWebKit/537.36 (KHTML, like Gecko) Chrome/125.0.0.0 Safari/537.36",WebKit,Chrome,125.0.0.0,Windows,10.0,https://app.prolific.com/,"en-US,en;q=0.9",xk6t6z,"[""exposure_4s_11.mp3""]",exposure,,exp_noresponse,,,,,,
13349,1,audio-button-response,21,236516,0.0-16.0-5.0,18,tonic E5,2024-06-02 16:07:12,ecb3e64ed8cd71acc3b73d1b8ab0c1b0,45.19.163.72,"Mozilla/5.0 (Windows NT 10.0; Win64; x64) AppleWebKit/537.36 (KHTML, like Gecko) Chrome/125.0.0.0 Safari/537.36",WebKit,Chrome,125.0.0.0,Windows,10.0,https://app.prolific.com/,"en-US,en;q=0.9",xk6t6z,attn_length_hard_1.mp3,exposure,true,attncheck,,,,,,
null,null,audio-keyboard-response,22,259811,0.0-16.0-6.0,18,tonic E5,2024-06-02 16:07:12,ecb3e64ed8cd71acc3b73d1b8ab0c1b0,45.19.163.72,"Mozilla/5.0 (Windows NT 10.0; Win64; x64) AppleWebKit/537.36 (KHTML, like Gecko) Chrome/125.0.0.0 Safari/537.36",WebKit,Chrome,125.0.0.0,Windows,10.0,https://app.prolific.com/,"en-US,en;q=0.9",xk6t6z,"[""exposure_4s_2.mp3""]",exposure,,exp_noresponse,,,,,,
null,null,audio-keyboard-response,23,284489,0.0-16.0-7.0,18,tonic E5,2024-06-02 16:07:12,ecb3e64ed8cd71acc3b73d1b8ab0c1b0,45.19.163.72,"Mozilla/5.0 (Windows NT 10.0; Win64; x64) AppleWebKit/537.36 (KHTML, like Gecko) Chrome/125.0.0.0 Safari/537.36",WebKit,Chrome,125.0.0.0,Windows,10.0,https://app.prolific.com/,"en-US,en;q=0.9",xk6t6z,"[""exposure_4s_33.mp3""]",exposure,,exp_noresponse,,,,,,
null,null,audio-keyboard-response,24,307730,0.0-16.0-8.0,18,tonic E5,2024-06-02 16:07:12,ecb3e64ed8cd71acc3b73d1b8ab0c1b0,45.19.163.72,"Mozilla/5.0 (Windows NT 10.0; Win64; x64) AppleWebKit/537.36 (KHTML, like Gecko) Chrome/125.0.0.0 Safari/537.36",WebKit,Chrome,125.0.0.0,Windows,10.0,https://app.prolific.com/,"en-US,en;q=0.9",xk6t6z,"[""exposure_4s_27.mp3""]",exposure,,exp_noresponse,,,,,,
null,null,audio-keyboard-response,25,330732,0.0-16.0-9.0,18,tonic E5,2024-06-02 16:07:12,ecb3e64ed8cd71acc3b73d1b8ab0c1b0,45.19.163.72,"Mozilla/5.0 (Windows NT 10.0; Win64; x64) AppleWebKit/537.36 (KHTML, like Gecko) Chrome/125.0.0.0 Safari/537.36",WebKit,Chrome,125.0.0.0,Windows,10.0,https://app.prolific.com/,"en-US,en;q=0.9",xk6t6z,"[""exposure_4s_29.mp3""]",exposure,,exp_noresponse,,,,,,
null,null,audio-keyboard-response,26,355072,0.0-16.0-10.0,18,tonic E5,2024-06-02 16:07:12,ecb3e64ed8cd71acc3b73d1b8ab0c1b0,45.19.163.72,"Mozilla/5.0 (Windows NT 10.0; Win64; x64) AppleWebKit/537.36 (KHTML, like Gecko) Chrome/125.0.0.0 Safari/537.36",WebKit,Chrome,125.0.0.0,Windows,10.0,https://app.prolific.com/,"en-US,en;q=0.9",xk6t6z,"[""exposure_4s_40.mp3""]",exposure,,exp_noresponse,,,,,,
null,null,audio-keyboard-response,27,379416,0.0-16.0-11.0,18,tonic E5,2024-06-02 16:07:12,ecb3e64ed8cd71acc3b73d1b8ab0c1b0,45.19.163.72,"Mozilla/5.0 (Windows NT 10.0; Win64; x64) AppleWebKit/537.36 (KHTML, like Gecko) Chrome/125.0.0.0 Safari/537.36",WebKit,Chrome,125.0.0.0,Windows,10.0,https://app.prolific.com/,"en-US,en;q=0.9",xk6t6z,"[""exposure_4s_8.mp3""]",exposure,,exp_noresponse,,,,,,
null,null,audio-keyboard-response,28,402427,0.0-16.0-12.0,18,tonic E5,2024-06-02 16:07:12,ecb3e64ed8cd71acc3b73d1b8ab0c1b0,45.19.163.72,"Mozilla/5.0 (Windows NT 10.0; Win64; x64) AppleWebKit/537.36 (KHTML, like Gecko) Chrome/125.0.0.0 Safari/537.36",WebKit,Chrome,125.0.0.0,Windows,10.0,https://app.prolific.com/,"en-US,en;q=0.9",xk6t6z,"[""exposure_4s_19.mp3""]",exposure,,exp_noresponse,,,,,,
null,null,audio-keyboard-response,29,426799,0.0-16.0-13.0,18,tonic E5,2024-06-02 16:07:12,ecb3e64ed8cd71acc3b73d1b8ab0c1b0,45.19.163.72,"Mozilla/5.0 (Windows NT 10.0; Win64; x64) AppleWebKit/537.36 (KHTML, like Gecko) Chrome/125.0.0.0 Safari/537.36",WebKit,Chrome,125.0.0.0,Windows,10.0,https://app.prolific.com/,"en-US,en;q=0.9",xk6t6z,"[""exposure_4s_10.mp3""]",exposure,,exp_noresponse,,,,,,
null,null,audio-keyboard-response,30,449803,0.0-16.0-14.0,18,tonic E5,2024-06-02 16:07:12,ecb3e64ed8cd71acc3b73d1b8ab0c1b0,45.19.163.72,"Mozilla/5.0 (Windows NT 10.0; Win64; x64) AppleWebKit/537.36 (KHTML, like Gecko) Chrome/125.0.0.0 Safari/537.36",WebKit,Chrome,125.0.0.0,Windows,10.0,https://app.prolific.com/,"en-US,en;q=0.9",xk6t6z,"[""exposure_4s_33.mp3""]",exposure,,exp_noresponse,,,,,,
10411,1,audio-button-response,31,460358,0.0-16.0-15.0,18,tonic E5,2024-06-02 16:07:12,ecb3e64ed8cd71acc3b73d1b8ab0c1b0,45.19.163.72,"Mozilla/5.0 (Windows NT 10.0; Win64; x64) AppleWebKit/537.36 (KHTML, like Gecko) Chrome/125.0.0.0 Safari/537.36",WebKit,Chrome,125.0.0.0,Windows,10.0,https://app.prolific.com/,"en-US,en;q=0.9",xk6t6z,attn_length_int_1.mp3,exposure,true,attncheck,,,,,,
null,null,audio-keyboard-response,32,484729,0.0-16.0-16.0,18,tonic E5,2024-06-02 16:07:12,ecb3e64ed8cd71acc3b73d1b8ab0c1b0,45.19.163.72,"Mozilla/5.0 (Windows NT 10.0; Win64; x64) AppleWebKit/537.36 (KHTML, like Gecko) Chrome/125.0.0.0 Safari/537.36",WebKit,Chrome,125.0.0.0,Windows,10.0,https://app.prolific.com/,"en-US,en;q=0.9",xk6t6z,"[""exposure_4s_38.mp3""]",exposure,,exp_noresponse,,,,,,
null,null,audio-keyboard-response,33,507739,0.0-16.0-17.0,18,tonic E5,2024-06-02 16:07:12,ecb3e64ed8cd71acc3b73d1b8ab0c1b0,45.19.163.72,"Mozilla/5.0 (Windows NT 10.0; Win64; x64) AppleWebKit/537.36 (KHTML, like Gecko) Chrome/125.0.0.0 Safari/537.36",WebKit,Chrome,125.0.0.0,Windows,10.0,https://app.prolific.com/,"en-US,en;q=0.9",xk6t6z,"[""exposure_4s_38.mp3""]",exposure,,exp_noresponse,,,,,,
null,null,audio-keyboard-response,34,533098,0.0-16.0-18.0,18,tonic E5,2024-06-02 16:07:12,ecb3e64ed8cd71acc3b73d1b8ab0c1b0,45.19.163.72,"Mozilla/5.0 (Windows NT 10.0; Win64; x64) AppleWebKit/537.36 (KHTML, like Gecko) Chrome/125.0.0.0 Safari/537.36",WebKit,Chrome,125.0.0.0,Windows,10.0,https://app.prolific.com/,"en-US,en;q=0.9",xk6t6z,"[""exposure_4s_43.mp3""]",exposure,,exp_noresponse,,,,,,
null,null,audio-keyboard-response,35,557540,0.0-16.0-19.0,18,tonic E5,2024-06-02 16:07:12,ecb3e64ed8cd71acc3b73d1b8ab0c1b0,45.19.163.72,"Mozilla/5.0 (Windows NT 10.0; Win64; x64) AppleWebKit/537.36 (KHTML, like Gecko) Chrome/125.0.0.0 Safari/537.36",WebKit,Chrome,125.0.0.0,Windows,10.0,https://app.prolific.com/,"en-US,en;q=0.9",xk6t6z,"[""exposure_4s_42.mp3""]",exposure,,exp_noresponse,,,,,,
10800,5,audio-slider-response,36,569374,0.0-16.0-20.0,18,tonic E5,2024-06-02 16:07:12,ecb3e64ed8cd71acc3b73d1b8ab0c1b0,45.19.163.72,"Mozilla/5.0 (Windows NT 10.0; Win64; x64) AppleWebKit/537.36 (KHTML, like Gecko) Chrome/125.0.0.0 Safari/537.36",WebKit,Chrome,125.0.0.0,Windows,10.0,https://app.prolific.com/,"en-US,en;q=0.9",xk6t6z,"[""grammatical_2.mp3""]",exposure,,exp_liking,4,,,,,
null,null,audio-keyboard-response,37,593705,0.0-16.0-21.0,18,tonic E5,2024-06-02 16:07:12,ecb3e64ed8cd71acc3b73d1b8ab0c1b0,45.19.163.72,"Mozilla/5.0 (Windows NT 10.0; Win64; x64) AppleWebKit/537.36 (KHTML, like Gecko) Chrome/125.0.0.0 Safari/537.36",WebKit,Chrome,125.0.0.0,Windows,10.0,https://app.prolific.com/,"en-US,en;q=0.9",xk6t6z,"[""exposure_4s_5.mp3""]",exposure,,exp_noresponse,,,,,,
null,null,audio-keyboard-response,38,616915,0.0-16.0-22.0,18,tonic E5,2024-06-02 16:07:12,ecb3e64ed8cd71acc3b73d1b8ab0c1b0,45.19.163.72,"Mozilla/5.0 (Windows NT 10.0; Win64; x64) AppleWebKit/537.36 (KHTML, like Gecko) Chrome/125.0.0.0 Safari/537.36",WebKit,Chrome,125.0.0.0,Windows,10.0,https://app.prolific.com/,"en-US,en;q=0.9",xk6t6z,"[""exposure_4s_16.mp3""]",exposure,,exp_noresponse,,,,,,
null,null,audio-keyboard-response,39,639930,0.0-16.0-23.0,18,tonic E5,2024-06-02 16:07:12,ecb3e64ed8cd71acc3b73d1b8ab0c1b0,45.19.163.72,"Mozilla/5.0 (Windows NT 10.0; Win64; x64) AppleWebKit/537.36 (KHTML, like Gecko) Chrome/125.0.0.0 Safari/537.36",WebKit,Chrome,125.0.0.0,Windows,10.0,https://app.prolific.com/,"en-US,en;q=0.9",xk6t6z,"[""exposure_4s_42.mp3""]",exposure,,exp_noresponse,,,,,,
null,null,audio-keyboard-response,40,664313,0.0-16.0-24.0,18,tonic E5,2024-06-02 16:07:12,ecb3e64ed8cd71acc3b73d1b8ab0c1b0,45.19.163.72,"Mozilla/5.0 (Windows NT 10.0; Win64; x64) AppleWebKit/537.36 (KHTML, like Gecko) Chrome/125.0.0.0 Safari/537.36",WebKit,Chrome,125.0.0.0,Windows,10.0,https://app.prolific.com/,"en-US,en;q=0.9",xk6t6z,"[""exposure_4s_44.mp3""]",exposure,,exp_noresponse,,,,,,
null,null,audio-keyboard-response,41,688668,0.0-16.0-25.0,18,tonic E5,2024-06-02 16:07:12,ecb3e64ed8cd71acc3b73d1b8ab0c1b0,45.19.163.72,"Mozilla/5.0 (Windows NT 10.0; Win64; x64) AppleWebKit/537.36 (KHTML, like Gecko) Chrome/125.0.0.0 Safari/537.36",WebKit,Chrome,125.0.0.0,Windows,10.0,https://app.prolific.com/,"en-US,en;q=0.9",xk6t6z,"[""exposure_4s_36.mp3""]",exposure,,exp_noresponse,,,,,,
11200,1,audio-button-response,42,699976,0.0-16.0-26.0,18,tonic E5,2024-06-02 16:07:12,ecb3e64ed8cd71acc3b73d1b8ab0c1b0,45.19.163.72,"Mozilla/5.0 (Windows NT 10.0; Win64; x64) AppleWebKit/537.36 (KHTML, like Gecko) Chrome/125.0.0.0 Safari/537.36",WebKit,Chrome,125.0.0.0,Windows,10.0,https://app.prolific.com/,"en-US,en;q=0.9",xk6t6z,attn_length_easy_1.mp3,exposure,true,attncheck,,,,,,
null,null,audio-keyboard-response,43,723186,0.0-16.0-27.0,18,tonic E5,2024-06-02 16:07:12,ecb3e64ed8cd71acc3b73d1b8ab0c1b0,45.19.163.72,"Mozilla/5.0 (Windows NT 10.0; Win64; x64) AppleWebKit/537.36 (KHTML, like Gecko) Chrome/125.0.0.0 Safari/537.36",WebKit,Chrome,125.0.0.0,Windows,10.0,https://app.prolific.com/,"en-US,en;q=0.9",xk6t6z,"[""exposure_4s_20.mp3""]",exposure,,exp_noresponse,,,,,,
12611,1,audio-button-response,44,735800,0.0-16.0-28.0,18,tonic E5,2024-06-02 16:07:12,ecb3e64ed8cd71acc3b73d1b8ab0c1b0,45.19.163.72,"Mozilla/5.0 (Windows NT 10.0; Win64; x64) AppleWebKit/537.36 (KHTML, like Gecko) Chrome/125.0.0.0 Safari/537.36",WebKit,Chrome,125.0.0.0,Windows,10.0,https://app.prolific.com/,"en-US,en;q=0.9",xk6t6z,attn_length_hard_1.mp3,exposure,true,attncheck,,,,,,
null,null,audio-keyboard-response,45,758810,0.0-16.0-29.0,18,tonic E5,2024-06-02 16:07:12,ecb3e64ed8cd71acc3b73d1b8ab0c1b0,45.19.163.72,"Mozilla/5.0 (Windows NT 10.0; Win64; x64) AppleWebKit/537.36 (KHTML, like Gecko) Chrome/125.0.0.0 Safari/537.36",WebKit,Chrome,125.0.0.0,Windows,10.0,https://app.prolific.com/,"en-US,en;q=0.9",xk6t6z,"[""exposure_4s_33.mp3""]",exposure,,exp_noresponse,,,,,,
null,null,audio-keyboard-response,46,782014,0.0-16.0-30.0,18,tonic E5,2024-06-02 16:07:12,ecb3e64ed8cd71acc3b73d1b8ab0c1b0,45.19.163.72,"Mozilla/5.0 (Windows NT 10.0; Win64; x64) AppleWebKit/537.36 (KHTML, like Gecko) Chrome/125.0.0.0 Safari/537.36",WebKit,Chrome,125.0.0.0,Windows,10.0,https://app.prolific.com/,"en-US,en;q=0.9",xk6t6z,"[""exposure_4s_23.mp3""]",exposure,,exp_noresponse,,,,,,
null,null,audio-keyboard-response,47,805028,0.0-16.0-31.0,18,tonic E5,2024-06-02 16:07:12,ecb3e64ed8cd71acc3b73d1b8ab0c1b0,45.19.163.72,"Mozilla/5.0 (Windows NT 10.0; Win64; x64) AppleWebKit/537.36 (KHTML, like Gecko) Chrome/125.0.0.0 Safari/537.36",WebKit,Chrome,125.0.0.0,Windows,10.0,https://app.prolific.com/,"en-US,en;q=0.9",xk6t6z,"[""exposure_4s_33.mp3""]",exposure,,exp_noresponse,,,,,,
9251,1,audio-button-response,48,814282,0.0-16.0-32.0,18,tonic E5,2024-06-02 16:07:12,ecb3e64ed8cd71acc3b73d1b8ab0c1b0,45.19.163.72,"Mozilla/5.0 (Windows NT 10.0; Win64; x64) AppleWebKit/537.36 (KHTML, like Gecko) Chrome/125.0.0.0 Safari/537.36",WebKit,Chrome,125.0.0.0,Windows,10.0,https://app.prolific.com/,"en-US,en;q=0.9",xk6t6z,attn_length_easy_1.mp3,exposure,true,attncheck,,,,,,
null,null,audio-keyboard-response,49,837502,0.0-16.0-33.0,18,tonic E5,2024-06-02 16:07:12,ecb3e64ed8cd71acc3b73d1b8ab0c1b0,45.19.163.72,"Mozilla/5.0 (Windows NT 10.0; Win64; x64) AppleWebKit/537.36 (KHTML, like Gecko) Chrome/125.0.0.0 Safari/537.36",WebKit,Chrome,125.0.0.0,Windows,10.0,https://app.prolific.com/,"en-US,en;q=0.9",xk6t6z,"[""exposure_4s_35.mp3""]",exposure,,exp_noresponse,,,,,,
null,null,audio-keyboard-response,50,860507,0.0-16.0-34.0,18,tonic E5,2024-06-02 16:07:12,ecb3e64ed8cd71acc3b73d1b8ab0c1b0,45.19.163.72,"Mozilla/5.0 (Windows NT 10.0; Win64; x64) AppleWebKit/537.36 (KHTML, like Gecko) Chrome/125.0.0.0 Safari/537.36",WebKit,Chrome,125.0.0.0,Windows,10.0,https://app.prolific.com/,"en-US,en;q=0.9",xk6t6z,"[""exposure_4s_29.mp3""]",exposure,,exp_noresponse,,,,,,
null,null,audio-keyboard-response,51,886429,0.0-16.0-35.0,18,tonic E5,2024-06-02 16:07:12,ecb3e64ed8cd71acc3b73d1b8ab0c1b0,45.19.163.72,"Mozilla/5.0 (Windows NT 10.0; Win64; x64) AppleWebKit/537.36 (KHTML, like Gecko) Chrome/125.0.0.0 Safari/537.36",WebKit,Chrome,125.0.0.0,Windows,10.0,https://app.prolific.com/,"en-US,en;q=0.9",xk6t6z,"[""exposure_4s_1.mp3""]",exposure,,exp_noresponse,,,,,,
null,null,audio-keyboard-response,52,909648,0.0-16.0-36.0,18,tonic E5,2024-06-02 16:07:12,ecb3e64ed8cd71acc3b73d1b8ab0c1b0,45.19.163.72,"Mozilla/5.0 (Windows NT 10.0; Win64; x64) AppleWebKit/537.36 (KHTML, like Gecko) Chrome/125.0.0.0 Safari/537.36",WebKit,Chrome,125.0.0.0,Windows,10.0,https://app.prolific.com/,"en-US,en;q=0.9",xk6t6z,"[""exposure_4s_34.mp3""]",exposure,,exp_noresponse,,,,,,
8669,1,audio-button-response,53,918325,0.0-16.0-37.0,18,tonic E5,2024-06-02 16:07:12,ecb3e64ed8cd71acc3b73d1b8ab0c1b0,45.19.163.72,"Mozilla/5.0 (Windows NT 10.0; Win64; x64) AppleWebKit/537.36 (KHTML, like Gecko) Chrome/125.0.0.0 Safari/537.36",WebKit,Chrome,125.0.0.0,Windows,10.0,https://app.prolific.com/,"en-US,en;q=0.9",xk6t6z,attn_length_int_1.mp3,exposure,true,attncheck,,,,,,
9640,1,audio-button-response,54,927965,0.0-16.0-38.0,18,tonic E5,2024-06-02 16:07:12,ecb3e64ed8cd71acc3b73d1b8ab0c1b0,45.19.163.72,"Mozilla/5.0 (Windows NT 10.0; Win64; x64) AppleWebKit/537.36 (KHTML, like Gecko) Chrome/125.0.0.0 Safari/537.36",WebKit,Chrome,125.0.0.0,Windows,10.0,https://app.prolific.com/,"en-US,en;q=0.9",xk6t6z,attn_length_int_1.mp3,exposure,true,attncheck,,,,,,
null,null,audio-keyboard-response,55,950968,0.0-16.0-39.0,18,tonic E5,2024-06-02 16:07:12,ecb3e64ed8cd71acc3b73d1b8ab0c1b0,45.19.163.72,"Mozilla/5.0 (Windows NT 10.0; Win64; x64) AppleWebKit/537.36 (KHTML, like Gecko) Chrome/125.0.0.0 Safari/537.36",WebKit,Chrome,125.0.0.0,Windows,10.0,https://app.prolific.com/,"en-US,en;q=0.9",xk6t6z,"[""exposure_4s_34.mp3""]",exposure,,exp_noresponse,,,,,,
null,null,audio-keyboard-response,56,974223,0.0-16.0-40.0,18,tonic E5,2024-06-02 16:07:12,ecb3e64ed8cd71acc3b73d1b8ab0c1b0,45.19.163.72,"Mozilla/5.0 (Windows NT 10.0; Win64; x64) AppleWebKit/537.36 (KHTML, like Gecko) Chrome/125.0.0.0 Safari/537.36",WebKit,Chrome,125.0.0.0,Windows,10.0,https://app.prolific.com/,"en-US,en;q=0.9",xk6t6z,"[""exposure_4s_37.mp3""]",exposure,,exp_noresponse,,,,,,
null,null,audio-keyboard-response,57,997464,0.0-16.0-41.0,18,tonic E5,2024-06-02 16:07:12,ecb3e64ed8cd71acc3b73d1b8ab0c1b0,45.19.163.72,"Mozilla/5.0 (Windows NT 10.0; Win64; x64) AppleWebKit/537.36 (KHTML, like Gecko) Chrome/125.0.0.0 Safari/537.36",WebKit,Chrome,125.0.0.0,Windows,10.0,https://app.prolific.com/,"en-US,en;q=0.9",xk6t6z,"[""exposure_4s_7.mp3""]",exposure,,exp_noresponse,,,,,,
null,null,audio-keyboard-response,58,1020478,0.0-16.0-42.0,18,tonic E5,2024-06-02 16:07:12,ecb3e64ed8cd71acc3b73d1b8ab0c1b0,45.19.163.72,"Mozilla/5.0 (Windows NT 10.0; Win64; x64) AppleWebKit/537.36 (KHTML, like Gecko) Chrome/125.0.0.0 Safari/537.36",WebKit,Chrome,125.0.0.0,Windows,10.0,https://app.prolific.com/,"en-US,en;q=0.9",xk6t6z,"[""exposure_4s_16.mp3""]",exposure,,exp_noresponse,,,,,,
8771,1,audio-button-response,59,1029251,0.0-16.0-43.0,18,tonic E5,2024-06-02 16:07:12,ecb3e64ed8cd71acc3b73d1b8ab0c1b0,45.19.163.72,"Mozilla/5.0 (Windows NT 10.0; Win64; x64) AppleWebKit/537.36 (KHTML, like Gecko) Chrome/125.0.0.0 Safari/537.36",WebKit,Chrome,125.0.0.0,Windows,10.0,https://app.prolific.com/,"en-US,en;q=0.9",xk6t6z,attn_length_easy_1.mp3,exposure,true,attncheck,,,,,,
4760,5,audio-slider-response,60,1035249,0.0-16.0-44.0,18,tonic E5,2024-06-02 16:07:12,ecb3e64ed8cd71acc3b73d1b8ab0c1b0,45.19.163.72,"Mozilla/5.0 (Windows NT 10.0; Win64; x64) AppleWebKit/537.36 (KHTML, like Gecko) Chrome/125.0.0.0 Safari/537.36",WebKit,Chrome,125.0.0.0,Windows,10.0,https://app.prolific.com/,"en-US,en;q=0.9",xk6t6z,"[""grammatical_6.mp3""]",exposure,,exp_liking,4,,,,,
null,null,audio-keyboard-response,61,1059602,0.0-16.0-45.0,18,tonic E5,2024-06-02 16:07:12,ecb3e64ed8cd71acc3b73d1b8ab0c1b0,45.19.163.72,"Mozilla/5.0 (Windows NT 10.0; Win64; x64) AppleWebKit/537.36 (KHTML, like Gecko) Chrome/125.0.0.0 Safari/537.36",WebKit,Chrome,125.0.0.0,Windows,10.0,https://app.prolific.com/,"en-US,en;q=0.9",xk6t6z,"[""exposure_4s_13.mp3""]",exposure,,exp_noresponse,,,,,,
null,null,audio-keyboard-response,62,1082605,0.0-16.0-46.0,18,tonic E5,2024-06-02 16:07:12,ecb3e64ed8cd71acc3b73d1b8ab0c1b0,45.19.163.72,"Mozilla/5.0 (Windows NT 10.0; Win64; x64) AppleWebKit/537.36 (KHTML, like Gecko) Chrome/125.0.0.0 Safari/537.36",WebKit,Chrome,125.0.0.0,Windows,10.0,https://app.prolific.com/,"en-US,en;q=0.9",xk6t6z,"[""exposure_4s_18.mp3""]",exposure,,exp_noresponse,,,,,,
null,null,audio-keyboard-response,63,1105618,0.0-16.0-47.0,18,tonic E5,2024-06-02 16:07:12,ecb3e64ed8cd71acc3b73d1b8ab0c1b0,45.19.163.72,"Mozilla/5.0 (Windows NT 10.0; Win64; x64) AppleWebKit/537.36 (KHTML, like Gecko) Chrome/125.0.0.0 Safari/537.36",WebKit,Chrome,125.0.0.0,Windows,10.0,https://app.prolific.com/,"en-US,en;q=0.9",xk6t6z,"[""exposure_4s_29.mp3""]",exposure,,exp_noresponse,,,,,,
null,null,audio-keyboard-response,64,1128632,0.0-16.0-48.0,18,tonic E5,2024-06-02 16:07:12,ecb3e64ed8cd71acc3b73d1b8ab0c1b0,45.19.163.72,"Mozilla/5.0 (Windows NT 10.0; Win64; x64) AppleWebKit/537.36 (KHTML, like Gecko) Chrome/125.0.0.0 Safari/537.36",WebKit,Chrome,125.0.0.0,Windows,10.0,https://app.prolific.com/,"en-US,en;q=0.9",xk6t6z,"[""exposure_4s_35.mp3""]",exposure,,exp_noresponse,,,,,,
null,null,audio-keyboard-response,65,1151879,0.0-16.0-49.0,18,tonic E5,2024-06-02 16:07:12,ecb3e64ed8cd71acc3b73d1b8ab0c1b0,45.19.163.72,"Mozilla/5.0 (Windows NT 10.0; Win64; x64) AppleWebKit/537.36 (KHTML, like Gecko) Chrome/125.0.0.0 Safari/537.36",WebKit,Chrome,125.0.0.0,Windows,10.0,https://app.prolific.com/,"en-US,en;q=0.9",xk6t6z,"[""exposure_4s_17.mp3""]",exposure,,exp_noresponse,,,,,,
null,null,audio-keyboard-response,66,1174888,0.0-16.0-50.0,18,tonic E5,2024-06-02 16:07:12,ecb3e64ed8cd71acc3b73d1b8ab0c1b0,45.19.163.72,"Mozilla/5.0 (Windows NT 10.0; Win64; x64) AppleWebKit/537.36 (KHTML, like Gecko) Chrome/125.0.0.0 Safari/537.36",WebKit,Chrome,125.0.0.0,Windows,10.0,https://app.prolific.com/,"en-US,en;q=0.9",xk6t6z,"[""exposure_4s_7.mp3""]",exposure,,exp_noresponse,,,,,,
7739,1,audio-button-response,67,1182631,0.0-16.0-51.0,18,tonic E5,2024-06-02 16:07:12,ecb3e64ed8cd71acc3b73d1b8ab0c1b0,45.19.163.72,"Mozilla/5.0 (Windows NT 10.0; Win64; x64) AppleWebKit/537.36 (KHTML, like Gecko) Chrome/125.0.0.0 Safari/537.36",WebKit,Chrome,125.0.0.0,Windows,10.0,https://app.prolific.com/,"en-US,en;q=0.9",xk6t6z,attn_length_easy_1.mp3,exposure,true,attncheck,,,,,,
null,null,audio-keyboard-response,68,1207024,0.0-16.0-52.0,18,tonic E5,2024-06-02 16:07:12,ecb3e64ed8cd71acc3b73d1b8ab0c1b0,45.19.163.72,"Mozilla/5.0 (Windows NT 10.0; Win64; x64) AppleWebKit/537.36 (KHTML, like Gecko) Chrome/125.0.0.0 Safari/537.36",WebKit,Chrome,125.0.0.0,Windows,10.0,https://app.prolific.com/,"en-US,en;q=0.9",xk6t6z,"[""exposure_4s_30.mp3""]",exposure,,exp_noresponse,,,,,,
null,null,audio-keyboard-response,69,1230229,0.0-16.0-53.0,18,tonic E5,2024-06-02 16:07:12,ecb3e64ed8cd71acc3b73d1b8ab0c1b0,45.19.163.72,"Mozilla/5.0 (Windows NT 10.0; Win64; x64) AppleWebKit/537.36 (KHTML, like Gecko) Chrome/125.0.0.0 Safari/537.36",WebKit,Chrome,125.0.0.0,Windows,10.0,https://app.prolific.com/,"en-US,en;q=0.9",xk6t6z,"[""exposure_4s_3.mp3""]",exposure,,exp_noresponse,,,,,,
null,null,audio-keyboard-response,70,1253242,0.0-16.0-54.0,18,tonic E5,2024-06-02 16:07:12,ecb3e64ed8cd71acc3b73d1b8ab0c1b0,45.19.163.72,"Mozilla/5.0 (Windows NT 10.0; Win64; x64) AppleWebKit/537.36 (KHTML, like Gecko) Chrome/125.0.0.0 Safari/537.36",WebKit,Chrome,125.0.0.0,Windows,10.0,https://app.prolific.com/,"en-US,en;q=0.9",xk6t6z,"[""exposure_4s_30.mp3""]",exposure,,exp_noresponse,,,,,,
11440,1,audio-button-response,71,1264685,0.0-16.0-55.0,18,tonic E5,2024-06-02 16:07:12,ecb3e64ed8cd71acc3b73d1b8ab0c1b0,45.19.163.72,"Mozilla/5.0 (Windows NT 10.0; Win64; x64) AppleWebKit/537.36 (KHTML, like Gecko) Chrome/125.0.0.0 Safari/537.36",WebKit,Chrome,125.0.0.0,Windows,10.0,https://app.prolific.com/,"en-US,en;q=0.9",xk6t6z,attn_length_hard_1.mp3,exposure,true,attncheck,,,,,,
null,null,audio-keyboard-response,72,1287945,0.0-16.0-56.0,18,tonic E5,2024-06-02 16:07:12,ecb3e64ed8cd71acc3b73d1b8ab0c1b0,45.19.163.72,"Mozilla/5.0 (Windows NT 10.0; Win64; x64) AppleWebKit/537.36 (KHTML, like Gecko) Chrome/125.0.0.0 Safari/537.36",WebKit,Chrome,125.0.0.0,Windows,10.0,https://app.prolific.com/,"en-US,en;q=0.9",xk6t6z,"[""exposure_4s_22.mp3""]",exposure,,exp_noresponse,,,,,,
null,null,audio-keyboard-response,73,1310957,0.0-16.0-57.0,18,tonic E5,2024-06-02 16:07:12,ecb3e64ed8cd71acc3b73d1b8ab0c1b0,45.19.163.72,"Mozilla/5.0 (Windows NT 10.0; Win64; x64) AppleWebKit/537.36 (KHTML, like Gecko) Chrome/125.0.0.0 Safari/537.36",WebKit,Chrome,125.0.0.0,Windows,10.0,https://app.prolific.com/,"en-US,en;q=0.9",xk6t6z,"[""exposure_4s_18.mp3""]",exposure,,exp_noresponse,,,,,,
11469,1,audio-button-response,74,1322427,0.0-16.0-58.0,18,tonic E5,2024-06-02 16:07:12,ecb3e64ed8cd71acc3b73d1b8ab0c1b0,45.19.163.72,"Mozilla/5.0 (Windows NT 10.0; Win64; x64) AppleWebKit/537.36 (KHTML, like Gecko) Chrome/125.0.0.0 Safari/537.36",WebKit,Chrome,125.0.0.0,Windows,10.0,https://app.prolific.com/,"en-US,en;q=0.9",xk6t6z,attn_length_hard_1.mp3,exposure,true,attncheck,,,,,,
null,null,audio-keyboard-response,75,1345438,0.0-16.0-59.0,18,tonic E5,2024-06-02 16:07:12,ecb3e64ed8cd71acc3b73d1b8ab0c1b0,45.19.163.72,"Mozilla/5.0 (Windows NT 10.0; Win64; x64) AppleWebKit/537.36 (KHTML, like Gecko) Chrome/125.0.0.0 Safari/537.36",WebKit,Chrome,125.0.0.0,Windows,10.0,https://app.prolific.com/,"en-US,en;q=0.9",xk6t6z,"[""exposure_4s_2.mp3""]",exposure,,exp_noresponse,,,,,,
4965, ,html-keyboard-response,76,1350404,0.0-17.0,18,tonic E5,2024-06-02 16:07:12,ecb3e64ed8cd71acc3b73d1b8ab0c1b0,45.19.163.72,"Mozilla/5.0 (Windows NT 10.0; Win64; x64) AppleWebKit/537.36 (KHTML, like Gecko) Chrome/125.0.0.0 Safari/537.36",WebKit,Chrome,125.0.0.0,Windows,10.0,https://app.prolific.com/,"en-US,en;q=0.9",xk6t6z,"<p>You will now be asked to judge how similar some melodies are to what you have
    just listened to. </p>
    <p><b>Press the space bar to continue.</b></p>",,,,,,,,,
2911, ,html-keyboard-response,77,1353316,0.0-18.0,18,tonic E5,2024-06-02 16:07:12,ecb3e64ed8cd71acc3b73d1b8ab0c1b0,45.19.163.72,"Mozilla/5.0 (Windows NT 10.0; Win64; x64) AppleWebKit/537.36 (KHTML, like Gecko) Chrome/125.0.0.0 Safari/537.36",WebKit,Chrome,125.0.0.0,Windows,10.0,https://app.prolific.com/,"en-US,en;q=0.9",xk6t6z,"<p>The changes in the melodies are subtle. If you are not sure, go with your gut feeling.</p>
    <p><b>Press the space bar to continue.</b></p>",,,,,,,,,
9840,7,audio-slider-response,78,1363160,0.0-19.0-0.0,18,tonic E5,2024-06-02 16:07:12,ecb3e64ed8cd71acc3b73d1b8ab0c1b0,45.19.163.72,"Mozilla/5.0 (Windows NT 10.0; Win64; x64) AppleWebKit/537.36 (KHTML, like Gecko) Chrome/125.0.0.0 Safari/537.36",WebKit,Chrome,125.0.0.0,Windows,10.0,https://app.prolific.com/,"en-US,en;q=0.9",xk6t6z,grammatical_1.mp3,grammar_learning,,,4,,,,,
7552,5,audio-slider-response,79,1370865,0.0-19.0-0.1,18,tonic E5,2024-06-02 16:07:12,ecb3e64ed8cd71acc3b73d1b8ab0c1b0,45.19.163.72,"Mozilla/5.0 (Windows NT 10.0; Win64; x64) AppleWebKit/537.36 (KHTML, like Gecko) Chrome/125.0.0.0 Safari/537.36",WebKit,Chrome,125.0.0.0,Windows,10.0,https://app.prolific.com/,"en-US,en;q=0.9",xk6t6z,grammatical_5.mp3,grammar_learning,,,4,,,,,
6280,3,audio-slider-response,80,1377232,0.0-19.0-0.2,18,tonic E5,2024-06-02 16:07:12,ecb3e64ed8cd71acc3b73d1b8ab0c1b0,45.19.163.72,"Mozilla/5.0 (Windows NT 10.0; Win64; x64) AppleWebKit/537.36 (KHTML, like Gecko) Chrome/125.0.0.0 Safari/537.36",WebKit,Chrome,125.0.0.0,Windows,10.0,https://app.prolific.com/,"en-US,en;q=0.9",xk6t6z,agrammatical_2.mp3,grammar_learning,,,4,,,,,
7920,7,audio-slider-response,81,1385248,0.0-19.0-0.3,18,tonic E5,2024-06-02 16:07:12,ecb3e64ed8cd71acc3b73d1b8ab0c1b0,45.19.163.72,"Mozilla/5.0 (Windows NT 10.0; Win64; x64) AppleWebKit/537.36 (KHTML, like Gecko) Chrome/125.0.0.0 Safari/537.36",WebKit,Chrome,125.0.0.0,Windows,10.0,https://app.prolific.com/,"en-US,en;q=0.9",xk6t6z,grammatical_8.mp3,grammar_learning,,,4,,,,,
6731,2,audio-slider-response,82,1392138,0.0-19.0-0.4,18,tonic E5,2024-06-02 16:07:12,ecb3e64ed8cd71acc3b73d1b8ab0c1b0,45.19.163.72,"Mozilla/5.0 (Windows NT 10.0; Win64; x64) AppleWebKit/537.36 (KHTML, like Gecko) Chrome/125.0.0.0 Safari/537.36",WebKit,Chrome,125.0.0.0,Windows,10.0,https://app.prolific.com/,"en-US,en;q=0.9",xk6t6z,agrammatical_4.mp3,grammar_learning,,,4,,,,,
7861,5,audio-slider-response,83,1400092,0.0-19.0-0.5,18,tonic E5,2024-06-02 16:07:12,ecb3e64ed8cd71acc3b73d1b8ab0c1b0,45.19.163.72,"Mozilla/5.0 (Windows NT 10.0; Win64; x64) AppleWebKit/537.36 (KHTML, like Gecko) Chrome/125.0.0.0 Safari/537.36",WebKit,Chrome,125.0.0.0,Windows,10.0,https://app.prolific.com/,"en-US,en;q=0.9",xk6t6z,agrammatical_7.mp3,grammar_learning,,,4,,,,,
11149,4,audio-slider-response,84,1411330,0.0-19.0-0.6,18,tonic E5,2024-06-02 16:07:12,ecb3e64ed8cd71acc3b73d1b8ab0c1b0,45.19.163.72,"Mozilla/5.0 (Windows NT 10.0; Win64; x64) AppleWebKit/537.36 (KHTML, like Gecko) Chrome/125.0.0.0 Safari/537.36",WebKit,Chrome,125.0.0.0,Windows,10.0,https://app.prolific.com/,"en-US,en;q=0.9",xk6t6z,agrammatical_3.mp3,grammar_learning,,,4,,,,,
6499,5,audio-slider-response,85,1417836,0.0-19.0-0.7,18,tonic E5,2024-06-02 16:07:12,ecb3e64ed8cd71acc3b73d1b8ab0c1b0,45.19.163.72,"Mozilla/5.0 (Windows NT 10.0; Win64; x64) AppleWebKit/537.36 (KHTML, like Gecko) Chrome/125.0.0.0 Safari/537.36",WebKit,Chrome,125.0.0.0,Windows,10.0,https://app.prolific.com/,"en-US,en;q=0.9",xk6t6z,grammatical_6.mp3,grammar_learning,,,4,,,,,
8099,6,audio-slider-response,86,1426043,0.0-19.0-0.8,18,tonic E5,2024-06-02 16:07:12,ecb3e64ed8cd71acc3b73d1b8ab0c1b0,45.19.163.72,"Mozilla/5.0 (Windows NT 10.0; Win64; x64) AppleWebKit/537.36 (KHTML, like Gecko) Chrome/125.0.0.0 Safari/537.36",WebKit,Chrome,125.0.0.0,Windows,10.0,https://app.prolific.com/,"en-US,en;q=0.9",xk6t6z,grammatical_4.mp3,grammar_learning,,,4,,,,,
6949,4,audio-slider-response,87,1433085,0.0-19.0-0.9,18,tonic E5,2024-06-02 16:07:12,ecb3e64ed8cd71acc3b73d1b8ab0c1b0,45.19.163.72,"Mozilla/5.0 (Windows NT 10.0; Win64; x64) AppleWebKit/537.36 (KHTML, like Gecko) Chrome/125.0.0.0 Safari/537.36",WebKit,Chrome,125.0.0.0,Windows,10.0,https://app.prolific.com/,"en-US,en;q=0.9",xk6t6z,agrammatical_5.mp3,grammar_learning,,,4,,,,,
7259,6,audio-slider-response,88,1440444,0.0-19.0-0.10,18,tonic E5,2024-06-02 16:07:12,ecb3e64ed8cd71acc3b73d1b8ab0c1b0,45.19.163.72,"Mozilla/5.0 (Windows NT 10.0; Win64; x64) AppleWebKit/537.36 (KHTML, like Gecko) Chrome/125.0.0.0 Safari/537.36",WebKit,Chrome,125.0.0.0,Windows,10.0,https://app.prolific.com/,"en-US,en;q=0.9",xk6t6z,agrammatical_1.mp3,grammar_learning,,,4,,,,,
8000,3,audio-slider-response,89,1448612,0.0-19.0-0.11,18,tonic E5,2024-06-02 16:07:12,ecb3e64ed8cd71acc3b73d1b8ab0c1b0,45.19.163.72,"Mozilla/5.0 (Windows NT 10.0; Win64; x64) AppleWebKit/537.36 (KHTML, like Gecko) Chrome/125.0.0.0 Safari/537.36",WebKit,Chrome,125.0.0.0,Windows,10.0,https://app.prolific.com/,"en-US,en;q=0.9",xk6t6z,agrammatical_6.mp3,grammar_learning,,,4,,,,,
5360,5,audio-slider-response,90,1454054,0.0-19.0-0.12,18,tonic E5,2024-06-02 16:07:12,ecb3e64ed8cd71acc3b73d1b8ab0c1b0,45.19.163.72,"Mozilla/5.0 (Windows NT 10.0; Win64; x64) AppleWebKit/537.36 (KHTML, like Gecko) Chrome/125.0.0.0 Safari/537.36",WebKit,Chrome,125.0.0.0,Windows,10.0,https://app.prolific.com/,"en-US,en;q=0.9",xk6t6z,agrammatical_8.mp3,grammar_learning,,,4,,,,,
14680,4,audio-slider-response,91,1468744,0.0-19.0-0.13,18,tonic E5,2024-06-02 16:07:12,ecb3e64ed8cd71acc3b73d1b8ab0c1b0,45.19.163.72,"Mozilla/5.0 (Windows NT 10.0; Win64; x64) AppleWebKit/537.36 (KHTML, like Gecko) Chrome/125.0.0.0 Safari/537.36",WebKit,Chrome,125.0.0.0,Windows,10.0,https://app.prolific.com/,"en-US,en;q=0.9",xk6t6z,grammatical_2.mp3,grammar_learning,,,4,,,,,
6440,7,audio-slider-response,92,1475271,0.0-19.0-0.14,18,tonic E5,2024-06-02 16:07:12,ecb3e64ed8cd71acc3b73d1b8ab0c1b0,45.19.163.72,"Mozilla/5.0 (Windows NT 10.0; Win64; x64) AppleWebKit/537.36 (KHTML, like Gecko) Chrome/125.0.0.0 Safari/537.36",WebKit,Chrome,125.0.0.0,Windows,10.0,https://app.prolific.com/,"en-US,en;q=0.9",xk6t6z,grammatical_7.mp3,grammar_learning,,,4,,,,,
6851,7,audio-slider-response,93,1482206,0.0-19.0-0.15,18,tonic E5,2024-06-02 16:07:12,ecb3e64ed8cd71acc3b73d1b8ab0c1b0,45.19.163.72,"Mozilla/5.0 (Windows NT 10.0; Win64; x64) AppleWebKit/537.36 (KHTML, like Gecko) Chrome/125.0.0.0 Safari/537.36",WebKit,Chrome,125.0.0.0,Windows,10.0,https://app.prolific.com/,"en-US,en;q=0.9",xk6t6z,grammatical_3.mp3,grammar_learning,,,4,,,,,
36996,"{""prolific_id"":""COUNTED THE NUMBER OF BEATS AND TOOK NOTE OF THE ACCENTS""}",survey-html-form,94,1519204,0.0-20.0,18,tonic E5,2024-06-02 16:07:12,ecb3e64ed8cd71acc3b73d1b8ab0c1b0,45.19.163.72,"Mozilla/5.0 (Windows NT 10.0; Win64; x64) AppleWebKit/537.36 (KHTML, like Gecko) Chrome/125.0.0.0 Safari/537.36",WebKit,Chrome,125.0.0.0,Windows,10.0,https://app.prolific.com/,"en-US,en;q=0.9",xk6t6z,,,,,,,,,,
2958, ,html-keyboard-response,95,1522163,0.0-21.0,18,tonic E5,2024-06-02 16:07:12,ecb3e64ed8cd71acc3b73d1b8ab0c1b0,45.19.163.72,"Mozilla/5.0 (Windows NT 10.0; Win64; x64) AppleWebKit/537.36 (KHTML, like Gecko) Chrome/125.0.0.0 Safari/537.36",WebKit,Chrome,125.0.0.0,Windows,10.0,https://app.prolific.com/,"en-US,en;q=0.9",xk6t6z,"<p>In this part of the experiment, you will presented with two melodies in succession. 
    <p><b>Press the space bar to continue.</b></p>",,,,,,,,,
7087, ,html-keyboard-response,96,1529251,0.0-22.0,18,tonic E5,2024-06-02 16:07:12,ecb3e64ed8cd71acc3b73d1b8ab0c1b0,45.19.163.72,"Mozilla/5.0 (Windows NT 10.0; Win64; x64) AppleWebKit/537.36 (KHTML, like Gecko) Chrome/125.0.0.0 Safari/537.36",WebKit,Chrome,125.0.0.0,Windows,10.0,https://app.prolific.com/,"en-US,en;q=0.9",xk6t6z,"<p>The melodies are nearly identical, but have either an added accent or one different note. </p>
    <p><b>Press the space bar to continue.</b></p>",,,,,,,,,
1839, ,html-keyboard-response,97,1531091,0.0-23.0,18,tonic E5,2024-06-02 16:07:12,ecb3e64ed8cd71acc3b73d1b8ab0c1b0,45.19.163.72,"Mozilla/5.0 (Windows NT 10.0; Win64; x64) AppleWebKit/537.36 (KHTML, like Gecko) Chrome/125.0.0.0 Safari/537.36",WebKit,Chrome,125.0.0.0,Windows,10.0,https://app.prolific.com/,"en-US,en;q=0.9",xk6t6z,"<p>    Please choose the melody that <b>sounds better to you.</b></p>
    <p><b>Press the space bar to continue.</b></p>",,,,,,,,,
1662, ,html-keyboard-response,98,1532755,0.0-24.0,18,tonic E5,2024-06-02 16:07:12,ecb3e64ed8cd71acc3b73d1b8ab0c1b0,45.19.163.72,"Mozilla/5.0 (Windows NT 10.0; Win64; x64) AppleWebKit/537.36 (KHTML, like Gecko) Chrome/125.0.0.0 Safari/537.36",WebKit,Chrome,125.0.0.0,Windows,10.0,https://app.prolific.com/,"en-US,en;q=0.9",xk6t6z,There are <b>32 questions</b> in this section.,,,,,,,,,
8949,f,audio-keyboard-response,99,1541876,0.0-25.0-0.0,18,tonic E5,2024-06-02 16:07:12,ecb3e64ed8cd71acc3b73d1b8ab0c1b0,45.19.163.72,"Mozilla/5.0 (Windows NT 10.0; Win64; x64) AppleWebKit/537.36 (KHTML, like Gecko) Chrome/125.0.0.0 Safari/537.36",WebKit,Chrome,125.0.0.0,Windows,10.0,https://app.prolific.com/,"en-US,en;q=0.9",xk6t6z,fc_IC_default_5_1.mp3,forced_choice,,,,NA,j,false,false,
6349,j,audio-keyboard-response,100,1548228,0.0-25.0-0.1,18,tonic E5,2024-06-02 16:07:12,ecb3e64ed8cd71acc3b73d1b8ab0c1b0,45.19.163.72,"Mozilla/5.0 (Windows NT 10.0; Win64; x64) AppleWebKit/537.36 (KHTML, like Gecko) Chrome/125.0.0.0 Safari/537.36",WebKit,Chrome,125.0.0.0,Windows,10.0,https://app.prolific.com/,"en-US,en;q=0.9",xk6t6z,fc_accents_56_4.mp3,forced_choice,,,,j,NA,true,false,
8499,j,audio-keyboard-response,101,1556851,0.0-25.0-0.2,18,tonic E5,2024-06-02 16:07:12,ecb3e64ed8cd71acc3b73d1b8ab0c1b0,45.19.163.72,"Mozilla/5.0 (Windows NT 10.0; Win64; x64) AppleWebKit/537.36 (KHTML, like Gecko) Chrome/125.0.0.0 Safari/537.36",WebKit,Chrome,125.0.0.0,Windows,10.0,https://app.prolific.com/,"en-US,en;q=0.9",xk6t6z,fc_accents_56_1.mp3,forced_choice,,,,j,NA,true,false,
9040,j,audio-keyboard-response,102,1566003,0.0-25.0-0.3,18,tonic E5,2024-06-02 16:07:12,ecb3e64ed8cd71acc3b73d1b8ab0c1b0,45.19.163.72,"Mozilla/5.0 (Windows NT 10.0; Win64; x64) AppleWebKit/537.36 (KHTML, like Gecko) Chrome/125.0.0.0 Safari/537.36",WebKit,Chrome,125.0.0.0,Windows,10.0,https://app.prolific.com/,"en-US,en;q=0.9",xk6t6z,fc_IC_default_3_2.mp3,forced_choice,,,,NA,f,false,false,
6229,f,audio-keyboard-response,103,1572339,0.0-25.0-0.4,18,tonic E5,2024-06-02 16:07:12,ecb3e64ed8cd71acc3b73d1b8ab0c1b0,45.19.163.72,"Mozilla/5.0 (Windows NT 10.0; Win64; x64) AppleWebKit/537.36 (KHTML, like Gecko) Chrome/125.0.0.0 Safari/537.36",WebKit,Chrome,125.0.0.0,Windows,10.0,https://app.prolific.com/,"en-US,en;q=0.9",xk6t6z,fc_accents_32_4.mp3,forced_choice,,,,j,NA,false,false,
9560,f,audio-keyboard-response,104,1582035,0.0-25.0-0.5,18,tonic E5,2024-06-02 16:07:12,ecb3e64ed8cd71acc3b73d1b8ab0c1b0,45.19.163.72,"Mozilla/5.0 (Windows NT 10.0; Win64; x64) AppleWebKit/537.36 (KHTML, like Gecko) Chrome/125.0.0.0 Safari/537.36",WebKit,Chrome,125.0.0.0,Windows,10.0,https://app.prolific.com/,"en-US,en;q=0.9",xk6t6z,fc_IC_accent_3_2.mp3,forced_choice,,,,NA,f,false,true,
6309,j,audio-keyboard-response,105,1588467,0.0-25.0-0.6,18,tonic E5,2024-06-02 16:07:12,ecb3e64ed8cd71acc3b73d1b8ab0c1b0,45.19.163.72,"Mozilla/5.0 (Windows NT 10.0; Win64; x64) AppleWebKit/537.36 (KHTML, like Gecko) Chrome/125.0.0.0 Safari/537.36",WebKit,Chrome,125.0.0.0,Windows,10.0,https://app.prolific.com/,"en-US,en;q=0.9",xk6t6z,fc_accents_54_1.mp3,forced_choice,,,,j,NA,true,false,
6859,j,audio-keyboard-response,106,1595427,0.0-25.0-0.7,18,tonic E5,2024-06-02 16:07:12,ecb3e64ed8cd71acc3b73d1b8ab0c1b0,45.19.163.72,"Mozilla/5.0 (Windows NT 10.0; Win64; x64) AppleWebKit/537.36 (KHTML, like Gecko) Chrome/125.0.0.0 Safari/537.36",WebKit,Chrome,125.0.0.0,Windows,10.0,https://app.prolific.com/,"en-US,en;q=0.9",xk6t6z,fc_accents_56_3.mp3,forced_choice,,,,j,NA,true,false,
6152,f,audio-keyboard-response,107,1601684,0.0-25.0-0.8,18,tonic E5,2024-06-02 16:07:12,ecb3e64ed8cd71acc3b73d1b8ab0c1b0,45.19.163.72,"Mozilla/5.0 (Windows NT 10.0; Win64; x64) AppleWebKit/537.36 (KHTML, like Gecko) Chrome/125.0.0.0 Safari/537.36",WebKit,Chrome,125.0.0.0,Windows,10.0,https://app.prolific.com/,"en-US,en;q=0.9",xk6t6z,fc_accents_34_1.mp3,forced_choice,,,,j,NA,false,false,
6640,j,audio-keyboard-response,108,1608323,0.0-25.0-0.9,18,tonic E5,2024-06-02 16:07:12,ecb3e64ed8cd71acc3b73d1b8ab0c1b0,45.19.163.72,"Mozilla/5.0 (Windows NT 10.0; Win64; x64) AppleWebKit/537.36 (KHTML, like Gecko) Chrome/125.0.0.0 Safari/537.36",WebKit,Chrome,125.0.0.0,Windows,10.0,https://app.prolific.com/,"en-US,en;q=0.9",xk6t6z,fc_accents_54_4.mp3,forced_choice,,,,j,NA,true,false,
12080,f,audio-keyboard-response,109,1620499,0.0-25.0-0.10,18,tonic E5,2024-06-02 16:07:12,ecb3e64ed8cd71acc3b73d1b8ab0c1b0,45.19.163.72,"Mozilla/5.0 (Windows NT 10.0; Win64; x64) AppleWebKit/537.36 (KHTML, like Gecko) Chrome/125.0.0.0 Safari/537.36",WebKit,Chrome,125.0.0.0,Windows,10.0,https://app.prolific.com/,"en-US,en;q=0.9",xk6t6z,fc_IC_accent_5_4.mp3,forced_choice,,,,NA,j,false,false,
8000,f,audio-keyboard-response,110,1628595,0.0-25.0-0.11,18,tonic E5,2024-06-02 16:07:12,ecb3e64ed8cd71acc3b73d1b8ab0c1b0,45.19.163.72,"Mozilla/5.0 (Windows NT 10.0; Win64; x64) AppleWebKit/537.36 (KHTML, like Gecko) Chrome/125.0.0.0 Safari/537.36",WebKit,Chrome,125.0.0.0,Windows,10.0,https://app.prolific.com/,"en-US,en;q=0.9",xk6t6z,fc_accents_34_3.mp3,forced_choice,,,,j,NA,false,false,
6000,f,audio-keyboard-response,111,1634595,0.0-25.0-0.12,18,tonic E5,2024-06-02 16:07:12,ecb3e64ed8cd71acc3b73d1b8ab0c1b0,45.19.163.72,"Mozilla/5.0 (Windows NT 10.0; Win64; x64) AppleWebKit/537.36 (KHTML, like Gecko) Chrome/125.0.0.0 Safari/537.36",WebKit,Chrome,125.0.0.0,Windows,10.0,https://app.prolific.com/,"en-US,en;q=0.9",xk6t6z,fc_accents_32_1.mp3,forced_choice,,,,j,NA,false,false,
6440,j,audio-keyboard-response,112,1641139,0.0-25.0-0.13,18,tonic E5,2024-06-02 16:07:12,ecb3e64ed8cd71acc3b73d1b8ab0c1b0,45.19.163.72,"Mozilla/5.0 (Windows NT 10.0; Win64; x64) AppleWebKit/537.36 (KHTML, like Gecko) Chrome/125.0.0.0 Safari/537.36",WebKit,Chrome,125.0.0.0,Windows,10.0,https://app.prolific.com/,"en-US,en;q=0.9",xk6t6z,fc_IC_accent_3_3.mp3,forced_choice,,,,NA,f,false,false,
7931,f,audio-keyboard-response,113,1649155,0.0-25.0-0.14,18,tonic E5,2024-06-02 16:07:12,ecb3e64ed8cd71acc3b73d1b8ab0c1b0,45.19.163.72,"Mozilla/5.0 (Windows NT 10.0; Win64; x64) AppleWebKit/537.36 (KHTML, like Gecko) Chrome/125.0.0.0 Safari/537.36",WebKit,Chrome,125.0.0.0,Windows,10.0,https://app.prolific.com/,"en-US,en;q=0.9",xk6t6z,fc_IC_default_5_3.mp3,forced_choice,,,,NA,j,false,false,
7269,f,audio-keyboard-response,114,1656515,0.0-25.0-0.15,18,tonic E5,2024-06-02 16:07:12,ecb3e64ed8cd71acc3b73d1b8ab0c1b0,45.19.163.72,"Mozilla/5.0 (Windows NT 10.0; Win64; x64) AppleWebKit/537.36 (KHTML, like Gecko) Chrome/125.0.0.0 Safari/537.36",WebKit,Chrome,125.0.0.0,Windows,10.0,https://app.prolific.com/,"en-US,en;q=0.9",xk6t6z,fc_IC_default_3_3.mp3,forced_choice,,,,NA,f,false,true,
6541,j,audio-keyboard-response,115,1663155,0.0-25.0-0.16,18,tonic E5,2024-06-02 16:07:12,ecb3e64ed8cd71acc3b73d1b8ab0c1b0,45.19.163.72,"Mozilla/5.0 (Windows NT 10.0; Win64; x64) AppleWebKit/537.36 (KHTML, like Gecko) Chrome/125.0.0.0 Safari/537.36",WebKit,Chrome,125.0.0.0,Windows,10.0,https://app.prolific.com/,"en-US,en;q=0.9",xk6t6z,fc_accents_32_3.mp3,forced_choice,,,,j,NA,true,false,
5509,j,audio-keyboard-response,116,1668755,0.0-25.0-0.17,18,tonic E5,2024-06-02 16:07:12,ecb3e64ed8cd71acc3b73d1b8ab0c1b0,45.19.163.72,"Mozilla/5.0 (Windows NT 10.0; Win64; x64) AppleWebKit/537.36 (KHTML, like Gecko) Chrome/125.0.0.0 Safari/537.36",WebKit,Chrome,125.0.0.0,Windows,10.0,https://app.prolific.com/,"en-US,en;q=0.9",xk6t6z,fc_accents_56_2.mp3,forced_choice,,,,j,NA,true,false,
6309,f,audio-keyboard-response,117,1675155,0.0-25.0-0.18,18,tonic E5,2024-06-02 16:07:12,ecb3e64ed8cd71acc3b73d1b8ab0c1b0,45.19.163.72,"Mozilla/5.0 (Windows NT 10.0; Win64; x64) AppleWebKit/537.36 (KHTML, like Gecko) Chrome/125.0.0.0 Safari/537.36",WebKit,Chrome,125.0.0.0,Windows,10.0,https://app.prolific.com/,"en-US,en;q=0.9",xk6t6z,fc_IC_default_5_4.mp3,forced_choice,,,,NA,j,false,false,
10568,j,audio-keyboard-response,118,1685811,0.0-25.0-0.19,18,tonic E5,2024-06-02 16:07:12,ecb3e64ed8cd71acc3b73d1b8ab0c1b0,45.19.163.72,"Mozilla/5.0 (Windows NT 10.0; Win64; x64) AppleWebKit/537.36 (KHTML, like Gecko) Chrome/125.0.0.0 Safari/537.36",WebKit,Chrome,125.0.0.0,Windows,10.0,https://app.prolific.com/,"en-US,en;q=0.9",xk6t6z,fc_IC_accent_3_4.mp3,forced_choice,,,,NA,f,false,false,
6101,f,audio-keyboard-response,119,1692035,0.0-25.0-0.20,18,tonic E5,2024-06-02 16:07:12,ecb3e64ed8cd71acc3b73d1b8ab0c1b0,45.19.163.72,"Mozilla/5.0 (Windows NT 10.0; Win64; x64) AppleWebKit/537.36 (KHTML, like Gecko) Chrome/125.0.0.0 Safari/537.36",WebKit,Chrome,125.0.0.0,Windows,10.0,https://app.prolific.com/,"en-US,en;q=0.9",xk6t6z,fc_IC_accent_5_2.mp3,forced_choice,,,,NA,j,false,false,
6408,j,audio-keyboard-response,120,1698531,0.0-25.0-0.21,18,tonic E5,2024-06-02 16:07:12,ecb3e64ed8cd71acc3b73d1b8ab0c1b0,45.19.163.72,"Mozilla/5.0 (Windows NT 10.0; Win64; x64) AppleWebKit/537.36 (KHTML, like Gecko) Chrome/125.0.0.0 Safari/537.36",WebKit,Chrome,125.0.0.0,Windows,10.0,https://app.prolific.com/,"en-US,en;q=0.9",xk6t6z,fc_accents_34_2.mp3,forced_choice,,,,j,NA,true,false,
6899,f,audio-keyboard-response,121,1705539,0.0-25.0-0.22,18,tonic E5,2024-06-02 16:07:12,ecb3e64ed8cd71acc3b73d1b8ab0c1b0,45.19.163.72,"Mozilla/5.0 (Windows NT 10.0; Win64; x64) AppleWebKit/537.36 (KHTML, like Gecko) Chrome/125.0.0.0 Safari/537.36",WebKit,Chrome,125.0.0.0,Windows,10.0,https://app.prolific.com/,"en-US,en;q=0.9",xk6t6z,fc_IC_default_3_1.mp3,forced_choice,,,,NA,f,false,true,
6259,j,audio-keyboard-response,122,1711907,0.0-25.0-0.23,18,tonic E5,2024-06-02 16:07:12,ecb3e64ed8cd71acc3b73d1b8ab0c1b0,45.19.163.72,"Mozilla/5.0 (Windows NT 10.0; Win64; x64) AppleWebKit/537.36 (KHTML, like Gecko) Chrome/125.0.0.0 Safari/537.36",WebKit,Chrome,125.0.0.0,Windows,10.0,https://app.prolific.com/,"en-US,en;q=0.9",xk6t6z,fc_IC_default_3_4.mp3,forced_choice,,,,NA,f,false,false,
6821,j,audio-keyboard-response,123,1718835,0.0-25.0-0.24,18,tonic E5,2024-06-02 16:07:12,ecb3e64ed8cd71acc3b73d1b8ab0c1b0,45.19.163.72,"Mozilla/5.0 (Windows NT 10.0; Win64; x64) AppleWebKit/537.36 (KHTML, like Gecko) Chrome/125.0.0.0 Safari/537.36",WebKit,Chrome,125.0.0.0,Windows,10.0,https://app.prolific.com/,"en-US,en;q=0.9",xk6t6z,fc_accents_32_2.mp3,forced_choice,,,,j,NA,true,false,
5720,f,audio-keyboard-response,124,1724739,0.0-25.0-0.25,18,tonic E5,2024-06-02 16:07:12,ecb3e64ed8cd71acc3b73d1b8ab0c1b0,45.19.163.72,"Mozilla/5.0 (Windows NT 10.0; Win64; x64) AppleWebKit/537.36 (KHTML, like Gecko) Chrome/125.0.0.0 Safari/537.36",WebKit,Chrome,125.0.0.0,Windows,10.0,https://app.prolific.com/,"en-US,en;q=0.9",xk6t6z,fc_IC_accent_5_3.mp3,forced_choice,,,,NA,j,false,false,
7349,f,audio-keyboard-response,125,1732195,0.0-25.0-0.26,18,tonic E5,2024-06-02 16:07:12,ecb3e64ed8cd71acc3b73d1b8ab0c1b0,45.19.163.72,"Mozilla/5.0 (Windows NT 10.0; Win64; x64) AppleWebKit/537.36 (KHTML, like Gecko) Chrome/125.0.0.0 Safari/537.36",WebKit,Chrome,125.0.0.0,Windows,10.0,https://app.prolific.com/,"en-US,en;q=0.9",xk6t6z,fc_IC_accent_5_1.mp3,forced_choice,,,,NA,j,false,false,
6520,f,audio-keyboard-response,126,1738819,0.0-25.0-0.27,18,tonic E5,2024-06-02 16:07:12,ecb3e64ed8cd71acc3b73d1b8ab0c1b0,45.19.163.72,"Mozilla/5.0 (Windows NT 10.0; Win64; x64) AppleWebKit/537.36 (KHTML, like Gecko) Chrome/125.0.0.0 Safari/537.36",WebKit,Chrome,125.0.0.0,Windows,10.0,https://app.prolific.com/,"en-US,en;q=0.9",xk6t6z,fc_accents_54_3.mp3,forced_choice,,,,j,NA,false,false,
8600,j,audio-keyboard-response,127,1747523,0.0-25.0-0.28,18,tonic E5,2024-06-02 16:07:12,ecb3e64ed8cd71acc3b73d1b8ab0c1b0,45.19.163.72,"Mozilla/5.0 (Windows NT 10.0; Win64; x64) AppleWebKit/537.36 (KHTML, like Gecko) Chrome/125.0.0.0 Safari/537.36",WebKit,Chrome,125.0.0.0,Windows,10.0,https://app.prolific.com/,"en-US,en;q=0.9",xk6t6z,fc_accents_34_4.mp3,forced_choice,,,,j,NA,true,false,
6171,j,audio-keyboard-response,128,1753795,0.0-25.0-0.29,18,tonic E5,2024-06-02 16:07:12,ecb3e64ed8cd71acc3b73d1b8ab0c1b0,45.19.163.72,"Mozilla/5.0 (Windows NT 10.0; Win64; x64) AppleWebKit/537.36 (KHTML, like Gecko) Chrome/125.0.0.0 Safari/537.36",WebKit,Chrome,125.0.0.0,Windows,10.0,https://app.prolific.com/,"en-US,en;q=0.9",xk6t6z,fc_IC_accent_3_1.mp3,forced_choice,,,,NA,f,false,false,
5941,f,audio-keyboard-response,129,1759875,0.0-25.0-0.30,18,tonic E5,2024-06-02 16:07:12,ecb3e64ed8cd71acc3b73d1b8ab0c1b0,45.19.163.72,"Mozilla/5.0 (Windows NT 10.0; Win64; x64) AppleWebKit/537.36 (KHTML, like Gecko) Chrome/125.0.0.0 Safari/537.36",WebKit,Chrome,125.0.0.0,Windows,10.0,https://app.prolific.com/,"en-US,en;q=0.9",xk6t6z,fc_accents_54_2.mp3,forced_choice,,,,j,NA,false,false,
6808,f,audio-keyboard-response,130,1766771,0.0-25.0-0.31,18,tonic E5,2024-06-02 16:07:12,ecb3e64ed8cd71acc3b73d1b8ab0c1b0,45.19.163.72,"Mozilla/5.0 (Windows NT 10.0; Win64; x64) AppleWebKit/537.36 (KHTML, like Gecko) Chrome/125.0.0.0 Safari/537.36",WebKit,Chrome,125.0.0.0,Windows,10.0,https://app.prolific.com/,"en-US,en;q=0.9",xk6t6z,fc_IC_default_5_2.mp3,forced_choice,,,,NA,j,false,false,
3838, ,html-keyboard-response,131,1770611,0.0-26.0,18,tonic E5,2024-06-02 16:07:12,ecb3e64ed8cd71acc3b73d1b8ab0c1b0,45.19.163.72,"Mozilla/5.0 (Windows NT 10.0; Win64; x64) AppleWebKit/537.36 (KHTML, like Gecko) Chrome/125.0.0.0 Safari/537.36",WebKit,Chrome,125.0.0.0,Windows,10.0,https://app.prolific.com/,"en-US,en;q=0.9",xk6t6z,"<p>You have completed all the listening in this experiment. The remaining questions about your background
          will help us better understand your responses. You can skip any question that you do not wish to answer. </p>
          <p> <b> Press the space bar to continue. </b></p>",,,,,,,,,
3289,"{""HeadphoneUse"":""Yes, I used headphones""}",survey-multi-choice,132,1773902,0.0-27.0,18,tonic E5,2024-06-02 16:07:12,ecb3e64ed8cd71acc3b73d1b8ab0c1b0,45.19.163.72,"Mozilla/5.0 (Windows NT 10.0; Win64; x64) AppleWebKit/537.36 (KHTML, like Gecko) Chrome/125.0.0.0 Safari/537.36",WebKit,Chrome,125.0.0.0,Windows,10.0,https://app.prolific.com/,"en-US,en;q=0.9",xk6t6z,,survey,,,,,,,,[0]
13893,"{""age"":""1990"",""country"":""USA"",""language"":""ENGLISH""}",survey-html-form,133,1787799,0.0-28.0,18,tonic E5,2024-06-02 16:07:12,ecb3e64ed8cd71acc3b73d1b8ab0c1b0,45.19.163.72,"Mozilla/5.0 (Windows NT 10.0; Win64; x64) AppleWebKit/537.36 (KHTML, like Gecko) Chrome/125.0.0.0 Safari/537.36",WebKit,Chrome,125.0.0.0,Windows,10.0,https://app.prolific.com/,"en-US,en;q=0.9",xk6t6z,,survey,,,,,,,,
2038,"{""Gender"":""Male""}",survey-multi-choice,134,1789839,0.0-29.0,18,tonic E5,2024-06-02 16:07:12,ecb3e64ed8cd71acc3b73d1b8ab0c1b0,45.19.163.72,"Mozilla/5.0 (Windows NT 10.0; Win64; x64) AppleWebKit/537.36 (KHTML, like Gecko) Chrome/125.0.0.0 Safari/537.36",WebKit,Chrome,125.0.0.0,Windows,10.0,https://app.prolific.com/,"en-US,en;q=0.9",xk6t6z,,survey,,,,,,,,[0]
41832,"{""Colors"":[""Rock"",""Hip-hop"",""Other non-Western music""]}",survey-multi-select,135,1831676,0.0-30.0,18,tonic E5,2024-06-02 16:07:12,ecb3e64ed8cd71acc3b73d1b8ab0c1b0,45.19.163.72,"Mozilla/5.0 (Windows NT 10.0; Win64; x64) AppleWebKit/537.36 (KHTML, like Gecko) Chrome/125.0.0.0 Safari/537.36",WebKit,Chrome,125.0.0.0,Windows,10.0,https://app.prolific.com/,"en-US,en;q=0.9",xk6t6z,,,,,,,,,,[0]
10840,"{""HearingImpairment"":""No"",""PerfectPitch"":""No"",""Singing"":""Yes""}",survey-multi-choice,136,1842518,0.0-31.0,18,tonic E5,2024-06-02 16:07:12,ecb3e64ed8cd71acc3b73d1b8ab0c1b0,45.19.163.72,"Mozilla/5.0 (Windows NT 10.0; Win64; x64) AppleWebKit/537.36 (KHTML, like Gecko) Chrome/125.0.0.0 Safari/537.36",WebKit,Chrome,125.0.0.0,Windows,10.0,https://app.prolific.com/,"en-US,en;q=0.9",xk6t6z,,survey,,,,,,,,"[0,1,2]"
34497,"{""PracticeHours"":""Under 30 minutes"",""TrainingYears"":""Less than 1 year"",""TrainingType"":""I taught myself"",""Expertise"":""Advanced"",""NonWesternTraining"":""Yes""}",survey-multi-choice,137,1877019,0.0-32.0,18,tonic E5,2024-06-02 16:07:12,ecb3e64ed8cd71acc3b73d1b8ab0c1b0,45.19.163.72,"Mozilla/5.0 (Windows NT 10.0; Win64; x64) AppleWebKit/537.36 (KHTML, like Gecko) Chrome/125.0.0.0 Safari/537.36",WebKit,Chrome,125.0.0.0,Windows,10.0,https://app.prolific.com/,"en-US,en;q=0.9",xk6t6z,,survey,,,,,,,,"[0,1,2,3,4]"
11862,"{""TrainingStart"":""10-15""}",survey-multi-choice,138,1888884,0.0-33.0,18,tonic E5,2024-06-02 16:07:12,ecb3e64ed8cd71acc3b73d1b8ab0c1b0,45.19.163.72,"Mozilla/5.0 (Windows NT 10.0; Win64; x64) AppleWebKit/537.36 (KHTML, like Gecko) Chrome/125.0.0.0 Safari/537.36",WebKit,Chrome,125.0.0.0,Windows,10.0,https://app.prolific.com/,"en-US,en;q=0.9",xk6t6z,,survey,,,,,,,,[0]
6187,0,html-button-response,139,1895074,0.0-34.0,18,tonic E5,2024-06-02 16:07:12,ecb3e64ed8cd71acc3b73d1b8ab0c1b0,45.19.163.72,"Mozilla/5.0 (Windows NT 10.0; Win64; x64) AppleWebKit/537.36 (KHTML, like Gecko) Chrome/125.0.0.0 Safari/537.36",WebKit,Chrome,125.0.0.0,Windows,10.0,https://app.prolific.com/,"en-US,en;q=0.9",xk6t6z,"You have reached the end of the experiment. Your completion code is <b>C1AWH3EX</b>.
    <p>For questions or concerns, please write to <b>haiqin.zhang@ens.psl.eu.</b></p>
    Thank you for your participation!
  ",,,,,,,,,
51517,"{""prolific_id"":""66044622f6155bf104e762bc""}",survey-html-form,0,51522,0.0-0.0,13,tonic E5,2024-06-02 15:59:18,ecb3e64ed8cd71acc3b73d1b8ab0c1b0,75.207.30.35,"Mozilla/5.0 (Windows NT 10.0; Win64; x64) AppleWebKit/537.36 (KHTML, like Gecko) Chrome/125.0.0.0 Safari/537.36 Edg/125.0.0.0",WebKit,Edge,125.0.0.0,Windows,10.0,https://app.prolific.com/,"en-US,en;q=0.9",lcw0nv,,,,,,,,,,
2891, ,html-keyboard-response,1,54416,0.0-1.0,13,tonic E5,2024-06-02 15:59:18,ecb3e64ed8cd71acc3b73d1b8ab0c1b0,75.207.30.35,"Mozilla/5.0 (Windows NT 10.0; Win64; x64) AppleWebKit/537.36 (KHTML, like Gecko) Chrome/125.0.0.0 Safari/537.36 Edg/125.0.0.0",WebKit,Edge,125.0.0.0,Windows,10.0,https://app.prolific.com/,"en-US,en;q=0.9",lcw0nv,"
    <p>Please complete the experiment in a quiet place.
      We highly recommend using headphones.</p>

    </p align = 'justify'> <b>Press the space bar to proceed.</b> </p>",,,,,,,,,
29, ,html-keyboard-response,2,54448,0.0-2.0,13,tonic E5,2024-06-02 15:59:18,ecb3e64ed8cd71acc3b73d1b8ab0c1b0,75.207.30.35,"Mozilla/5.0 (Windows NT 10.0; Win64; x64) AppleWebKit/537.36 (KHTML, like Gecko) Chrome/125.0.0.0 Safari/537.36 Edg/125.0.0.0",WebKit,Edge,125.0.0.0,Windows,10.0,https://app.prolific.com/,"en-US,en;q=0.9",lcw0nv,"
    <p>A series of soundchecks will now be played to help you adjust the volume
      to a comfortable level. </p>

    </p align = 'justify'> <b>Press the space bar to proceed.</b> </p>",,,,,,,,,
12902,1,audio-button-response,3,68155,0.0-3.0-0.0,13,tonic E5,2024-06-02 15:59:18,ecb3e64ed8cd71acc3b73d1b8ab0c1b0,75.207.30.35,"Mozilla/5.0 (Windows NT 10.0; Win64; x64) AppleWebKit/537.36 (KHTML, like Gecko) Chrome/125.0.0.0 Safari/537.36 Edg/125.0.0.0",WebKit,Edge,125.0.0.0,Windows,10.0,https://app.prolific.com/,"en-US,en;q=0.9",lcw0nv,grammatical_1.mp3,,,,,,,,,
23444, ,html-keyboard-response,4,91601,0.0-4.0,13,tonic E5,2024-06-02 15:59:18,ecb3e64ed8cd71acc3b73d1b8ab0c1b0,75.207.30.35,"Mozilla/5.0 (Windows NT 10.0; Win64; x64) AppleWebKit/537.36 (KHTML, like Gecko) Chrome/125.0.0.0 Safari/537.36 Edg/125.0.0.0",WebKit,Edge,125.0.0.0,Windows,10.0,https://app.prolific.com/,"en-US,en;q=0.9",lcw0nv,"<p width = 300 px>
    You will now hear two melodies in succession. 
    The notes in each melody are the same, but there is an accent on one note for one of the melodies. 
    <b>Listen for which melody has the accent.</b>
    </p>
    
    Press the space bar to continue.",,,,,,,,,
5895, ,html-keyboard-response,5,97499,0.0-5.0,13,tonic E5,2024-06-02 15:59:18,ecb3e64ed8cd71acc3b73d1b8ab0c1b0,75.207.30.35,"Mozilla/5.0 (Windows NT 10.0; Win64; x64) AppleWebKit/537.36 (KHTML, like Gecko) Chrome/125.0.0.0 Safari/537.36 Edg/125.0.0.0",WebKit,Edge,125.0.0.0,Windows,10.0,https://app.prolific.com/,"en-US,en;q=0.9",lcw0nv,"<p width = 300 px>
    <b>You must score at least 2/3 to proceed with the experiment.</b>
    </p>
    
    Press the space bar to continue.",,,,,,,,,
12100,1,audio-button-response,6,109802,0.0-6.0,13,tonic E5,2024-06-02 15:59:18,ecb3e64ed8cd71acc3b73d1b8ab0c1b0,75.207.30.35,"Mozilla/5.0 (Windows NT 10.0; Win64; x64) AppleWebKit/537.36 (KHTML, like Gecko) Chrome/125.0.0.0 Safari/537.36 Edg/125.0.0.0",WebKit,Edge,125.0.0.0,Windows,10.0,https://app.prolific.com/,"en-US,en;q=0.9",lcw0nv,fc_accents_32_1.mp3,soundcheck,true,,,,,,,
5015, ,html-keyboard-response,7,114819,0.0-7.0,13,tonic E5,2024-06-02 15:59:18,ecb3e64ed8cd71acc3b73d1b8ab0c1b0,75.207.30.35,"Mozilla/5.0 (Windows NT 10.0; Win64; x64) AppleWebKit/537.36 (KHTML, like Gecko) Chrome/125.0.0.0 Safari/537.36 Edg/125.0.0.0",WebKit,Edge,125.0.0.0,Windows,10.0,https://app.prolific.com/,"en-US,en;q=0.9",lcw0nv,<p>Correct!</p> Press the space bar to continue.,,,,,,,,,
15801,1,audio-button-response,8,130770,0.0-8.0,13,tonic E5,2024-06-02 15:59:18,ecb3e64ed8cd71acc3b73d1b8ab0c1b0,75.207.30.35,"Mozilla/5.0 (Windows NT 10.0; Win64; x64) AppleWebKit/537.36 (KHTML, like Gecko) Chrome/125.0.0.0 Safari/537.36 Edg/125.0.0.0",WebKit,Edge,125.0.0.0,Windows,10.0,https://app.prolific.com/,"en-US,en;q=0.9",lcw0nv,fc_accents_56_4.mp3,soundcheck,true,,,,,,,
14780, ,html-keyboard-response,9,145552,0.0-9.0,13,tonic E5,2024-06-02 15:59:18,ecb3e64ed8cd71acc3b73d1b8ab0c1b0,75.207.30.35,"Mozilla/5.0 (Windows NT 10.0; Win64; x64) AppleWebKit/537.36 (KHTML, like Gecko) Chrome/125.0.0.0 Safari/537.36 Edg/125.0.0.0",WebKit,Edge,125.0.0.0,Windows,10.0,https://app.prolific.com/,"en-US,en;q=0.9",lcw0nv,<p>Correct!</p> Press the space bar to continue.,,,,,,,,,
6780,0,audio-button-response,10,152474,0.0-10.0,13,tonic E5,2024-06-02 15:59:18,ecb3e64ed8cd71acc3b73d1b8ab0c1b0,75.207.30.35,"Mozilla/5.0 (Windows NT 10.0; Win64; x64) AppleWebKit/537.36 (KHTML, like Gecko) Chrome/125.0.0.0 Safari/537.36 Edg/125.0.0.0",WebKit,Edge,125.0.0.0,Windows,10.0,https://app.prolific.com/,"en-US,en;q=0.9",lcw0nv,fc_accents_54_4.mp3,soundcheck,false,,,,,,,
2736, ,html-keyboard-response,11,155212,0.0-11.0,13,tonic E5,2024-06-02 15:59:18,ecb3e64ed8cd71acc3b73d1b8ab0c1b0,75.207.30.35,"Mozilla/5.0 (Windows NT 10.0; Win64; x64) AppleWebKit/537.36 (KHTML, like Gecko) Chrome/125.0.0.0 Safari/537.36 Edg/125.0.0.0",WebKit,Edge,125.0.0.0,Windows,10.0,https://app.prolific.com/,"en-US,en;q=0.9",lcw0nv,<p>Incorrect.</p> Press the space bar to continue.,,,,,,,,,
84, ,html-keyboard-response,12,155299,0.0-12.0,13,tonic E5,2024-06-02 15:59:18,ecb3e64ed8cd71acc3b73d1b8ab0c1b0,75.207.30.35,"Mozilla/5.0 (Windows NT 10.0; Win64; x64) AppleWebKit/537.36 (KHTML, like Gecko) Chrome/125.0.0.0 Safari/537.36 Edg/125.0.0.0",WebKit,Edge,125.0.0.0,Windows,10.0,https://app.prolific.com/,"en-US,en;q=0.9",lcw0nv,"If you got <b>less than 2/3</b> of the previous soundcheck questions correct, <b>we unfortunately cannot use your data or pay you</b>. Please exit the experiment now.
    
    <p>If you got <b>more than 2/3</b> correct, press the space bar to continue</p>.",,,,,,,,,
9702, ,html-keyboard-response,13,165003,0.0-13.0,13,tonic E5,2024-06-02 15:59:18,ecb3e64ed8cd71acc3b73d1b8ab0c1b0,75.207.30.35,"Mozilla/5.0 (Windows NT 10.0; Win64; x64) AppleWebKit/537.36 (KHTML, like Gecko) Chrome/125.0.0.0 Safari/537.36 Edg/125.0.0.0",WebKit,Edge,125.0.0.0,Windows,10.0,https://app.prolific.com/,"en-US,en;q=0.9",lcw0nv,"<p>Please listen carefully to the following set of melodies. 
      You will occassionally be asked some basic questions about some of the melodies to check your attention level. </p>
    <p><b>Press the space bar to continue.</b></p>",,,,,,,,,
14257, ,html-keyboard-response,14,179263,0.0-14.0,13,tonic E5,2024-06-02 15:59:18,ecb3e64ed8cd71acc3b73d1b8ab0c1b0,75.207.30.35,"Mozilla/5.0 (Windows NT 10.0; Win64; x64) AppleWebKit/537.36 (KHTML, like Gecko) Chrome/125.0.0.0 Safari/537.36 Edg/125.0.0.0",WebKit,Edge,125.0.0.0,Windows,10.0,https://app.prolific.com/,"en-US,en;q=0.9",lcw0nv,"<p>The attention questions vary in difficulty, but you must get at least some questions correct for us to pay you.</p>
    <p><b>Press the space bar to continue.</b></p>",,,,,,,,,
19, ,html-keyboard-response,15,179285,0.0-15.0,13,tonic E5,2024-06-02 15:59:18,ecb3e64ed8cd71acc3b73d1b8ab0c1b0,75.207.30.35,"Mozilla/5.0 (Windows NT 10.0; Win64; x64) AppleWebKit/537.36 (KHTML, like Gecko) Chrome/125.0.0.0 Safari/537.36 Edg/125.0.0.0",WebKit,Edge,125.0.0.0,Windows,10.0,https://app.prolific.com/,"en-US,en;q=0.9",lcw0nv,"
    This part of the experiment should take <b>15-20 minutes</b>. 
    <p><b>Press the space bar to begin.</b></p>",,,,,,,,,
null,null,audio-keyboard-response,16,202517,0.0-16.0-0.0,13,tonic E5,2024-06-02 15:59:18,ecb3e64ed8cd71acc3b73d1b8ab0c1b0,75.207.30.35,"Mozilla/5.0 (Windows NT 10.0; Win64; x64) AppleWebKit/537.36 (KHTML, like Gecko) Chrome/125.0.0.0 Safari/537.36 Edg/125.0.0.0",WebKit,Edge,125.0.0.0,Windows,10.0,https://app.prolific.com/,"en-US,en;q=0.9",lcw0nv,"[""exposure_4s_8.mp3""]",exposure,,exp_noresponse,,,,,,
null,null,audio-keyboard-response,17,226557,0.0-16.0-1.0,13,tonic E5,2024-06-02 15:59:18,ecb3e64ed8cd71acc3b73d1b8ab0c1b0,75.207.30.35,"Mozilla/5.0 (Windows NT 10.0; Win64; x64) AppleWebKit/537.36 (KHTML, like Gecko) Chrome/125.0.0.0 Safari/537.36 Edg/125.0.0.0",WebKit,Edge,125.0.0.0,Windows,10.0,https://app.prolific.com/,"en-US,en;q=0.9",lcw0nv,"[""exposure_4s_43.mp3""]",exposure,,exp_noresponse,,,,,,
null,null,audio-keyboard-response,18,249780,0.0-16.0-2.0,13,tonic E5,2024-06-02 15:59:18,ecb3e64ed8cd71acc3b73d1b8ab0c1b0,75.207.30.35,"Mozilla/5.0 (Windows NT 10.0; Win64; x64) AppleWebKit/537.36 (KHTML, like Gecko) Chrome/125.0.0.0 Safari/537.36 Edg/125.0.0.0",WebKit,Edge,125.0.0.0,Windows,10.0,https://app.prolific.com/,"en-US,en;q=0.9",lcw0nv,"[""exposure_4s_30.mp3""]",exposure,,exp_noresponse,,,,,,
null,null,audio-keyboard-response,19,273014,0.0-16.0-3.0,13,tonic E5,2024-06-02 15:59:18,ecb3e64ed8cd71acc3b73d1b8ab0c1b0,75.207.30.35,"Mozilla/5.0 (Windows NT 10.0; Win64; x64) AppleWebKit/537.36 (KHTML, like Gecko) Chrome/125.0.0.0 Safari/537.36 Edg/125.0.0.0",WebKit,Edge,125.0.0.0,Windows,10.0,https://app.prolific.com/,"en-US,en;q=0.9",lcw0nv,"[""exposure_4s_4.mp3""]",exposure,,exp_noresponse,,,,,,
null,null,audio-keyboard-response,20,296232,0.0-16.0-4.0,13,tonic E5,2024-06-02 15:59:18,ecb3e64ed8cd71acc3b73d1b8ab0c1b0,75.207.30.35,"Mozilla/5.0 (Windows NT 10.0; Win64; x64) AppleWebKit/537.36 (KHTML, like Gecko) Chrome/125.0.0.0 Safari/537.36 Edg/125.0.0.0",WebKit,Edge,125.0.0.0,Windows,10.0,https://app.prolific.com/,"en-US,en;q=0.9",lcw0nv,"[""exposure_4s_9.mp3""]",exposure,,exp_noresponse,,,,,,
null,null,audio-keyboard-response,21,319487,0.0-16.0-5.0,13,tonic E5,2024-06-02 15:59:18,ecb3e64ed8cd71acc3b73d1b8ab0c1b0,75.207.30.35,"Mozilla/5.0 (Windows NT 10.0; Win64; x64) AppleWebKit/537.36 (KHTML, like Gecko) Chrome/125.0.0.0 Safari/537.36 Edg/125.0.0.0",WebKit,Edge,125.0.0.0,Windows,10.0,https://app.prolific.com/,"en-US,en;q=0.9",lcw0nv,"[""exposure_4s_24.mp3""]",exposure,,exp_noresponse,,,,,,
null,null,audio-keyboard-response,22,343498,0.0-16.0-6.0,13,tonic E5,2024-06-02 15:59:18,ecb3e64ed8cd71acc3b73d1b8ab0c1b0,75.207.30.35,"Mozilla/5.0 (Windows NT 10.0; Win64; x64) AppleWebKit/537.36 (KHTML, like Gecko) Chrome/125.0.0.0 Safari/537.36 Edg/125.0.0.0",WebKit,Edge,125.0.0.0,Windows,10.0,https://app.prolific.com/,"en-US,en;q=0.9",lcw0nv,"[""exposure_4s_25.mp3""]",exposure,,exp_noresponse,,,,,,
null,null,audio-keyboard-response,23,366792,0.0-16.0-7.0,13,tonic E5,2024-06-02 15:59:18,ecb3e64ed8cd71acc3b73d1b8ab0c1b0,75.207.30.35,"Mozilla/5.0 (Windows NT 10.0; Win64; x64) AppleWebKit/537.36 (KHTML, like Gecko) Chrome/125.0.0.0 Safari/537.36 Edg/125.0.0.0",WebKit,Edge,125.0.0.0,Windows,10.0,https://app.prolific.com/,"en-US,en;q=0.9",lcw0nv,"[""exposure_4s_2.mp3""]",exposure,,exp_noresponse,,,,,,
9230,1,audio-button-response,24,376162,0.0-16.0-8.0,13,tonic E5,2024-06-02 15:59:18,ecb3e64ed8cd71acc3b73d1b8ab0c1b0,75.207.30.35,"Mozilla/5.0 (Windows NT 10.0; Win64; x64) AppleWebKit/537.36 (KHTML, like Gecko) Chrome/125.0.0.0 Safari/537.36 Edg/125.0.0.0",WebKit,Edge,125.0.0.0,Windows,10.0,https://app.prolific.com/,"en-US,en;q=0.9",lcw0nv,attn_length_int_1.mp3,exposure,true,attncheck,,,,,,
8493,1,audio-button-response,25,384658,0.0-16.0-9.0,13,tonic E5,2024-06-02 15:59:18,ecb3e64ed8cd71acc3b73d1b8ab0c1b0,75.207.30.35,"Mozilla/5.0 (Windows NT 10.0; Win64; x64) AppleWebKit/537.36 (KHTML, like Gecko) Chrome/125.0.0.0 Safari/537.36 Edg/125.0.0.0",WebKit,Edge,125.0.0.0,Windows,10.0,https://app.prolific.com/,"en-US,en;q=0.9",lcw0nv,attn_length_int_1.mp3,exposure,true,attncheck,,,,,,
null,null,audio-keyboard-response,26,407857,0.0-16.0-10.0,13,tonic E5,2024-06-02 15:59:18,ecb3e64ed8cd71acc3b73d1b8ab0c1b0,75.207.30.35,"Mozilla/5.0 (Windows NT 10.0; Win64; x64) AppleWebKit/537.36 (KHTML, like Gecko) Chrome/125.0.0.0 Safari/537.36 Edg/125.0.0.0",WebKit,Edge,125.0.0.0,Windows,10.0,https://app.prolific.com/,"en-US,en;q=0.9",lcw0nv,"[""exposure_4s_45.mp3""]",exposure,,exp_noresponse,,,,,,
7549,1,audio-button-response,27,415410,0.0-16.0-11.0,13,tonic E5,2024-06-02 15:59:18,ecb3e64ed8cd71acc3b73d1b8ab0c1b0,75.207.30.35,"Mozilla/5.0 (Windows NT 10.0; Win64; x64) AppleWebKit/537.36 (KHTML, like Gecko) Chrome/125.0.0.0 Safari/537.36 Edg/125.0.0.0",WebKit,Edge,125.0.0.0,Windows,10.0,https://app.prolific.com/,"en-US,en;q=0.9",lcw0nv,attn_length_int_1.mp3,exposure,true,attncheck,,,,,,
null,null,audio-keyboard-response,28,438631,0.0-16.0-12.0,13,tonic E5,2024-06-02 15:59:18,ecb3e64ed8cd71acc3b73d1b8ab0c1b0,75.207.30.35,"Mozilla/5.0 (Windows NT 10.0; Win64; x64) AppleWebKit/537.36 (KHTML, like Gecko) Chrome/125.0.0.0 Safari/537.36 Edg/125.0.0.0",WebKit,Edge,125.0.0.0,Windows,10.0,https://app.prolific.com/,"en-US,en;q=0.9",lcw0nv,"[""exposure_4s_19.mp3""]",exposure,,exp_noresponse,,,,,,
8809,1,audio-button-response,29,447618,0.0-16.0-13.0,13,tonic E5,2024-06-02 15:59:18,ecb3e64ed8cd71acc3b73d1b8ab0c1b0,75.207.30.35,"Mozilla/5.0 (Windows NT 10.0; Win64; x64) AppleWebKit/537.36 (KHTML, like Gecko) Chrome/125.0.0.0 Safari/537.36 Edg/125.0.0.0",WebKit,Edge,125.0.0.0,Windows,10.0,https://app.prolific.com/,"en-US,en;q=0.9",lcw0nv,attn_length_easy_1.mp3,exposure,true,attncheck,,,,,,
null,null,audio-keyboard-response,30,470831,0.0-16.0-14.0,13,tonic E5,2024-06-02 15:59:18,ecb3e64ed8cd71acc3b73d1b8ab0c1b0,75.207.30.35,"Mozilla/5.0 (Windows NT 10.0; Win64; x64) AppleWebKit/537.36 (KHTML, like Gecko) Chrome/125.0.0.0 Safari/537.36 Edg/125.0.0.0",WebKit,Edge,125.0.0.0,Windows,10.0,https://app.prolific.com/,"en-US,en;q=0.9",lcw0nv,"[""exposure_4s_13.mp3""]",exposure,,exp_noresponse,,,,,,
null,null,audio-keyboard-response,31,494043,0.0-16.0-15.0,13,tonic E5,2024-06-02 15:59:18,ecb3e64ed8cd71acc3b73d1b8ab0c1b0,75.207.30.35,"Mozilla/5.0 (Windows NT 10.0; Win64; x64) AppleWebKit/537.36 (KHTML, like Gecko) Chrome/125.0.0.0 Safari/537.36 Edg/125.0.0.0",WebKit,Edge,125.0.0.0,Windows,10.0,https://app.prolific.com/,"en-US,en;q=0.9",lcw0nv,"[""exposure_4s_35.mp3""]",exposure,,exp_noresponse,,,,,,
null,null,audio-keyboard-response,32,517272,0.0-16.0-16.0,13,tonic E5,2024-06-02 15:59:18,ecb3e64ed8cd71acc3b73d1b8ab0c1b0,75.207.30.35,"Mozilla/5.0 (Windows NT 10.0; Win64; x64) AppleWebKit/537.36 (KHTML, like Gecko) Chrome/125.0.0.0 Safari/537.36 Edg/125.0.0.0",WebKit,Edge,125.0.0.0,Windows,10.0,https://app.prolific.com/,"en-US,en;q=0.9",lcw0nv,"[""exposure_4s_40.mp3""]",exposure,,exp_noresponse,,,,,,
null,null,audio-keyboard-response,33,540489,0.0-16.0-17.0,13,tonic E5,2024-06-02 15:59:18,ecb3e64ed8cd71acc3b73d1b8ab0c1b0,75.207.30.35,"Mozilla/5.0 (Windows NT 10.0; Win64; x64) AppleWebKit/537.36 (KHTML, like Gecko) Chrome/125.0.0.0 Safari/537.36 Edg/125.0.0.0",WebKit,Edge,125.0.0.0,Windows,10.0,https://app.prolific.com/,"en-US,en;q=0.9",lcw0nv,"[""exposure_4s_17.mp3""]",exposure,,exp_noresponse,,,,,,
null,null,audio-keyboard-response,34,563707,0.0-16.0-18.0,13,tonic E5,2024-06-02 15:59:18,ecb3e64ed8cd71acc3b73d1b8ab0c1b0,75.207.30.35,"Mozilla/5.0 (Windows NT 10.0; Win64; x64) AppleWebKit/537.36 (KHTML, like Gecko) Chrome/125.0.0.0 Safari/537.36 Edg/125.0.0.0",WebKit,Edge,125.0.0.0,Windows,10.0,https://app.prolific.com/,"en-US,en;q=0.9",lcw0nv,"[""exposure_4s_1.mp3""]",exposure,,exp_noresponse,,,,,,
null,null,audio-keyboard-response,35,586712,0.0-16.0-19.0,13,tonic E5,2024-06-02 15:59:18,ecb3e64ed8cd71acc3b73d1b8ab0c1b0,75.207.30.35,"Mozilla/5.0 (Windows NT 10.0; Win64; x64) AppleWebKit/537.36 (KHTML, like Gecko) Chrome/125.0.0.0 Safari/537.36 Edg/125.0.0.0",WebKit,Edge,125.0.0.0,Windows,10.0,https://app.prolific.com/,"en-US,en;q=0.9",lcw0nv,"[""exposure_4s_24.mp3""]",exposure,,exp_noresponse,,,,,,
null,null,audio-keyboard-response,36,609931,0.0-16.0-20.0,13,tonic E5,2024-06-02 15:59:18,ecb3e64ed8cd71acc3b73d1b8ab0c1b0,75.207.30.35,"Mozilla/5.0 (Windows NT 10.0; Win64; x64) AppleWebKit/537.36 (KHTML, like Gecko) Chrome/125.0.0.0 Safari/537.36 Edg/125.0.0.0",WebKit,Edge,125.0.0.0,Windows,10.0,https://app.prolific.com/,"en-US,en;q=0.9",lcw0nv,"[""exposure_4s_7.mp3""]",exposure,,exp_noresponse,,,,,,
null,null,audio-keyboard-response,37,632935,0.0-16.0-21.0,13,tonic E5,2024-06-02 15:59:18,ecb3e64ed8cd71acc3b73d1b8ab0c1b0,75.207.30.35,"Mozilla/5.0 (Windows NT 10.0; Win64; x64) AppleWebKit/537.36 (KHTML, like Gecko) Chrome/125.0.0.0 Safari/537.36 Edg/125.0.0.0",WebKit,Edge,125.0.0.0,Windows,10.0,https://app.prolific.com/,"en-US,en;q=0.9",lcw0nv,"[""exposure_4s_40.mp3""]",exposure,,exp_noresponse,,,,,,
11761,1,audio-button-response,38,644866,0.0-16.0-22.0,13,tonic E5,2024-06-02 15:59:18,ecb3e64ed8cd71acc3b73d1b8ab0c1b0,75.207.30.35,"Mozilla/5.0 (Windows NT 10.0; Win64; x64) AppleWebKit/537.36 (KHTML, like Gecko) Chrome/125.0.0.0 Safari/537.36 Edg/125.0.0.0",WebKit,Edge,125.0.0.0,Windows,10.0,https://app.prolific.com/,"en-US,en;q=0.9",lcw0nv,attn_length_hard_1.mp3,exposure,true,attncheck,,,,,,
null,null,audio-keyboard-response,39,668061,0.0-16.0-23.0,13,tonic E5,2024-06-02 15:59:18,ecb3e64ed8cd71acc3b73d1b8ab0c1b0,75.207.30.35,"Mozilla/5.0 (Windows NT 10.0; Win64; x64) AppleWebKit/537.36 (KHTML, like Gecko) Chrome/125.0.0.0 Safari/537.36 Edg/125.0.0.0",WebKit,Edge,125.0.0.0,Windows,10.0,https://app.prolific.com/,"en-US,en;q=0.9",lcw0nv,"[""exposure_4s_20.mp3""]",exposure,,exp_noresponse,,,,,,
null,null,audio-keyboard-response,40,691288,0.0-16.0-24.0,13,tonic E5,2024-06-02 15:59:18,ecb3e64ed8cd71acc3b73d1b8ab0c1b0,75.207.30.35,"Mozilla/5.0 (Windows NT 10.0; Win64; x64) AppleWebKit/537.36 (KHTML, like Gecko) Chrome/125.0.0.0 Safari/537.36 Edg/125.0.0.0",WebKit,Edge,125.0.0.0,Windows,10.0,https://app.prolific.com/,"en-US,en;q=0.9",lcw0nv,"[""exposure_4s_32.mp3""]",exposure,,exp_noresponse,,,,,,
7840,6,audio-slider-response,41,699290,0.0-16.0-25.0,13,tonic E5,2024-06-02 15:59:18,ecb3e64ed8cd71acc3b73d1b8ab0c1b0,75.207.30.35,"Mozilla/5.0 (Windows NT 10.0; Win64; x64) AppleWebKit/537.36 (KHTML, like Gecko) Chrome/125.0.0.0 Safari/537.36 Edg/125.0.0.0",WebKit,Edge,125.0.0.0,Windows,10.0,https://app.prolific.com/,"en-US,en;q=0.9",lcw0nv,"[""grammatical_7.mp3""]",exposure,,exp_liking,4,,,,,
7599,1,audio-button-response,42,706890,0.0-16.0-26.0,13,tonic E5,2024-06-02 15:59:18,ecb3e64ed8cd71acc3b73d1b8ab0c1b0,75.207.30.35,"Mozilla/5.0 (Windows NT 10.0; Win64; x64) AppleWebKit/537.36 (KHTML, like Gecko) Chrome/125.0.0.0 Safari/537.36 Edg/125.0.0.0",WebKit,Edge,125.0.0.0,Windows,10.0,https://app.prolific.com/,"en-US,en;q=0.9",lcw0nv,attn_length_int_1.mp3,exposure,true,attncheck,,,,,,
null,null,audio-keyboard-response,43,730402,0.0-16.0-27.0,13,tonic E5,2024-06-02 15:59:18,ecb3e64ed8cd71acc3b73d1b8ab0c1b0,75.207.30.35,"Mozilla/5.0 (Windows NT 10.0; Win64; x64) AppleWebKit/537.36 (KHTML, like Gecko) Chrome/125.0.0.0 Safari/537.36 Edg/125.0.0.0",WebKit,Edge,125.0.0.0,Windows,10.0,https://app.prolific.com/,"en-US,en;q=0.9",lcw0nv,"[""exposure_4s_12.mp3""]",exposure,,exp_noresponse,,,,,,
null,null,audio-keyboard-response,44,753635,0.0-16.0-28.0,13,tonic E5,2024-06-02 15:59:18,ecb3e64ed8cd71acc3b73d1b8ab0c1b0,75.207.30.35,"Mozilla/5.0 (Windows NT 10.0; Win64; x64) AppleWebKit/537.36 (KHTML, like Gecko) Chrome/125.0.0.0 Safari/537.36 Edg/125.0.0.0",WebKit,Edge,125.0.0.0,Windows,10.0,https://app.prolific.com/,"en-US,en;q=0.9",lcw0nv,"[""exposure_4s_10.mp3""]",exposure,,exp_noresponse,,,,,,
null,null,audio-keyboard-response,45,776640,0.0-16.0-29.0,13,tonic E5,2024-06-02 15:59:18,ecb3e64ed8cd71acc3b73d1b8ab0c1b0,75.207.30.35,"Mozilla/5.0 (Windows NT 10.0; Win64; x64) AppleWebKit/537.36 (KHTML, like Gecko) Chrome/125.0.0.0 Safari/537.36 Edg/125.0.0.0",WebKit,Edge,125.0.0.0,Windows,10.0,https://app.prolific.com/,"en-US,en;q=0.9",lcw0nv,"[""exposure_4s_17.mp3""]",exposure,,exp_noresponse,,,,,,
null,null,audio-keyboard-response,46,799859,0.0-16.0-30.0,13,tonic E5,2024-06-02 15:59:18,ecb3e64ed8cd71acc3b73d1b8ab0c1b0,75.207.30.35,"Mozilla/5.0 (Windows NT 10.0; Win64; x64) AppleWebKit/537.36 (KHTML, like Gecko) Chrome/125.0.0.0 Safari/537.36 Edg/125.0.0.0",WebKit,Edge,125.0.0.0,Windows,10.0,https://app.prolific.com/,"en-US,en;q=0.9",lcw0nv,"[""exposure_4s_21.mp3""]",exposure,,exp_noresponse,,,,,,
null,null,audio-keyboard-response,47,823081,0.0-16.0-31.0,13,tonic E5,2024-06-02 15:59:18,ecb3e64ed8cd71acc3b73d1b8ab0c1b0,75.207.30.35,"Mozilla/5.0 (Windows NT 10.0; Win64; x64) AppleWebKit/537.36 (KHTML, like Gecko) Chrome/125.0.0.0 Safari/537.36 Edg/125.0.0.0",WebKit,Edge,125.0.0.0,Windows,10.0,https://app.prolific.com/,"en-US,en;q=0.9",lcw0nv,"[""exposure_4s_39.mp3""]",exposure,,exp_noresponse,,,,,,
null,null,audio-keyboard-response,48,846320,0.0-16.0-32.0,13,tonic E5,2024-06-02 15:59:18,ecb3e64ed8cd71acc3b73d1b8ab0c1b0,75.207.30.35,"Mozilla/5.0 (Windows NT 10.0; Win64; x64) AppleWebKit/537.36 (KHTML, like Gecko) Chrome/125.0.0.0 Safari/537.36 Edg/125.0.0.0",WebKit,Edge,125.0.0.0,Windows,10.0,https://app.prolific.com/,"en-US,en;q=0.9",lcw0nv,"[""exposure_4s_33.mp3""]",exposure,,exp_noresponse,,,,,,
null,null,audio-keyboard-response,49,869325,0.0-16.0-33.0,13,tonic E5,2024-06-02 15:59:18,ecb3e64ed8cd71acc3b73d1b8ab0c1b0,75.207.30.35,"Mozilla/5.0 (Windows NT 10.0; Win64; x64) AppleWebKit/537.36 (KHTML, like Gecko) Chrome/125.0.0.0 Safari/537.36 Edg/125.0.0.0",WebKit,Edge,125.0.0.0,Windows,10.0,https://app.prolific.com/,"en-US,en;q=0.9",lcw0nv,"[""exposure_4s_40.mp3""]",exposure,,exp_noresponse,,,,,,
null,null,audio-keyboard-response,50,892331,0.0-16.0-34.0,13,tonic E5,2024-06-02 15:59:18,ecb3e64ed8cd71acc3b73d1b8ab0c1b0,75.207.30.35,"Mozilla/5.0 (Windows NT 10.0; Win64; x64) AppleWebKit/537.36 (KHTML, like Gecko) Chrome/125.0.0.0 Safari/537.36 Edg/125.0.0.0",WebKit,Edge,125.0.0.0,Windows,10.0,https://app.prolific.com/,"en-US,en;q=0.9",lcw0nv,"[""exposure_4s_4.mp3""]",exposure,,exp_noresponse,,,,,,
null,null,audio-keyboard-response,51,915550,0.0-16.0-35.0,13,tonic E5,2024-06-02 15:59:18,ecb3e64ed8cd71acc3b73d1b8ab0c1b0,75.207.30.35,"Mozilla/5.0 (Windows NT 10.0; Win64; x64) AppleWebKit/537.36 (KHTML, like Gecko) Chrome/125.0.0.0 Safari/537.36 Edg/125.0.0.0",WebKit,Edge,125.0.0.0,Windows,10.0,https://app.prolific.com/,"en-US,en;q=0.9",lcw0nv,"[""exposure_4s_5.mp3""]",exposure,,exp_noresponse,,,,,,
null,null,audio-keyboard-response,52,938793,0.0-16.0-36.0,13,tonic E5,2024-06-02 15:59:18,ecb3e64ed8cd71acc3b73d1b8ab0c1b0,75.207.30.35,"Mozilla/5.0 (Windows NT 10.0; Win64; x64) AppleWebKit/537.36 (KHTML, like Gecko) Chrome/125.0.0.0 Safari/537.36 Edg/125.0.0.0",WebKit,Edge,125.0.0.0,Windows,10.0,https://app.prolific.com/,"en-US,en;q=0.9",lcw0nv,"[""exposure_4s_18.mp3""]",exposure,,exp_noresponse,,,,,,
null,null,audio-keyboard-response,53,961798,0.0-16.0-37.0,13,tonic E5,2024-06-02 15:59:18,ecb3e64ed8cd71acc3b73d1b8ab0c1b0,75.207.30.35,"Mozilla/5.0 (Windows NT 10.0; Win64; x64) AppleWebKit/537.36 (KHTML, like Gecko) Chrome/125.0.0.0 Safari/537.36 Edg/125.0.0.0",WebKit,Edge,125.0.0.0,Windows,10.0,https://app.prolific.com/,"en-US,en;q=0.9",lcw0nv,"[""exposure_4s_4.mp3""]",exposure,,exp_noresponse,,,,,,
7509,1,audio-button-response,54,969314,0.0-16.0-38.0,13,tonic E5,2024-06-02 15:59:18,ecb3e64ed8cd71acc3b73d1b8ab0c1b0,75.207.30.35,"Mozilla/5.0 (Windows NT 10.0; Win64; x64) AppleWebKit/537.36 (KHTML, like Gecko) Chrome/125.0.0.0 Safari/537.36 Edg/125.0.0.0",WebKit,Edge,125.0.0.0,Windows,10.0,https://app.prolific.com/,"en-US,en;q=0.9",lcw0nv,attn_length_int_1.mp3,exposure,true,attncheck,,,,,,
11442,1,audio-button-response,55,980754,0.0-16.0-39.0,13,tonic E5,2024-06-02 15:59:18,ecb3e64ed8cd71acc3b73d1b8ab0c1b0,75.207.30.35,"Mozilla/5.0 (Windows NT 10.0; Win64; x64) AppleWebKit/537.36 (KHTML, like Gecko) Chrome/125.0.0.0 Safari/537.36 Edg/125.0.0.0",WebKit,Edge,125.0.0.0,Windows,10.0,https://app.prolific.com/,"en-US,en;q=0.9",lcw0nv,attn_length_hard_1.mp3,exposure,true,attncheck,,,,,,
9030,1,audio-button-response,56,989786,0.0-16.0-40.0,13,tonic E5,2024-06-02 15:59:18,ecb3e64ed8cd71acc3b73d1b8ab0c1b0,75.207.30.35,"Mozilla/5.0 (Windows NT 10.0; Win64; x64) AppleWebKit/537.36 (KHTML, like Gecko) Chrome/125.0.0.0 Safari/537.36 Edg/125.0.0.0",WebKit,Edge,125.0.0.0,Windows,10.0,https://app.prolific.com/,"en-US,en;q=0.9",lcw0nv,attn_length_easy_1.mp3,exposure,true,attncheck,,,,,,
null,null,audio-keyboard-response,57,1012789,0.0-16.0-41.0,13,tonic E5,2024-06-02 15:59:18,ecb3e64ed8cd71acc3b73d1b8ab0c1b0,75.207.30.35,"Mozilla/5.0 (Windows NT 10.0; Win64; x64) AppleWebKit/537.36 (KHTML, like Gecko) Chrome/125.0.0.0 Safari/537.36 Edg/125.0.0.0",WebKit,Edge,125.0.0.0,Windows,10.0,https://app.prolific.com/,"en-US,en;q=0.9",lcw0nv,"[""exposure_4s_43.mp3""]",exposure,,exp_noresponse,,,,,,
null,null,audio-keyboard-response,58,1035997,0.0-16.0-42.0,13,tonic E5,2024-06-02 15:59:18,ecb3e64ed8cd71acc3b73d1b8ab0c1b0,75.207.30.35,"Mozilla/5.0 (Windows NT 10.0; Win64; x64) AppleWebKit/537.36 (KHTML, like Gecko) Chrome/125.0.0.0 Safari/537.36 Edg/125.0.0.0",WebKit,Edge,125.0.0.0,Windows,10.0,https://app.prolific.com/,"en-US,en;q=0.9",lcw0nv,"[""exposure_4s_26.mp3""]",exposure,,exp_noresponse,,,,,,
null,null,audio-keyboard-response,59,1059004,0.0-16.0-43.0,13,tonic E5,2024-06-02 15:59:18,ecb3e64ed8cd71acc3b73d1b8ab0c1b0,75.207.30.35,"Mozilla/5.0 (Windows NT 10.0; Win64; x64) AppleWebKit/537.36 (KHTML, like Gecko) Chrome/125.0.0.0 Safari/537.36 Edg/125.0.0.0",WebKit,Edge,125.0.0.0,Windows,10.0,https://app.prolific.com/,"en-US,en;q=0.9",lcw0nv,"[""exposure_4s_30.mp3""]",exposure,,exp_noresponse,,,,,,
null,null,audio-keyboard-response,60,1082010,0.0-16.0-44.0,13,tonic E5,2024-06-02 15:59:18,ecb3e64ed8cd71acc3b73d1b8ab0c1b0,75.207.30.35,"Mozilla/5.0 (Windows NT 10.0; Win64; x64) AppleWebKit/537.36 (KHTML, like Gecko) Chrome/125.0.0.0 Safari/537.36 Edg/125.0.0.0",WebKit,Edge,125.0.0.0,Windows,10.0,https://app.prolific.com/,"en-US,en;q=0.9",lcw0nv,"[""exposure_4s_33.mp3""]",exposure,,exp_noresponse,,,,,,
null,null,audio-keyboard-response,61,1105016,0.0-16.0-45.0,13,tonic E5,2024-06-02 15:59:18,ecb3e64ed8cd71acc3b73d1b8ab0c1b0,75.207.30.35,"Mozilla/5.0 (Windows NT 10.0; Win64; x64) AppleWebKit/537.36 (KHTML, like Gecko) Chrome/125.0.0.0 Safari/537.36 Edg/125.0.0.0",WebKit,Edge,125.0.0.0,Windows,10.0,https://app.prolific.com/,"en-US,en;q=0.9",lcw0nv,"[""exposure_4s_4.mp3""]",exposure,,exp_noresponse,,,,,,
null,null,audio-keyboard-response,62,1128284,0.0-16.0-46.0,13,tonic E5,2024-06-02 15:59:18,ecb3e64ed8cd71acc3b73d1b8ab0c1b0,75.207.30.35,"Mozilla/5.0 (Windows NT 10.0; Win64; x64) AppleWebKit/537.36 (KHTML, like Gecko) Chrome/125.0.0.0 Safari/537.36 Edg/125.0.0.0",WebKit,Edge,125.0.0.0,Windows,10.0,https://app.prolific.com/,"en-US,en;q=0.9",lcw0nv,"[""exposure_4s_41.mp3""]",exposure,,exp_noresponse,,,,,,
null,null,audio-keyboard-response,63,1151290,0.0-16.0-47.0,13,tonic E5,2024-06-02 15:59:18,ecb3e64ed8cd71acc3b73d1b8ab0c1b0,75.207.30.35,"Mozilla/5.0 (Windows NT 10.0; Win64; x64) AppleWebKit/537.36 (KHTML, like Gecko) Chrome/125.0.0.0 Safari/537.36 Edg/125.0.0.0",WebKit,Edge,125.0.0.0,Windows,10.0,https://app.prolific.com/,"en-US,en;q=0.9",lcw0nv,"[""exposure_4s_2.mp3""]",exposure,,exp_noresponse,,,,,,
null,null,audio-keyboard-response,64,1174505,0.0-16.0-48.0,13,tonic E5,2024-06-02 15:59:18,ecb3e64ed8cd71acc3b73d1b8ab0c1b0,75.207.30.35,"Mozilla/5.0 (Windows NT 10.0; Win64; x64) AppleWebKit/537.36 (KHTML, like Gecko) Chrome/125.0.0.0 Safari/537.36 Edg/125.0.0.0",WebKit,Edge,125.0.0.0,Windows,10.0,https://app.prolific.com/,"en-US,en;q=0.9",lcw0nv,"[""exposure_4s_16.mp3""]",exposure,,exp_noresponse,,,,,,
null,null,audio-keyboard-response,65,1197511,0.0-16.0-49.0,13,tonic E5,2024-06-02 15:59:18,ecb3e64ed8cd71acc3b73d1b8ab0c1b0,75.207.30.35,"Mozilla/5.0 (Windows NT 10.0; Win64; x64) AppleWebKit/537.36 (KHTML, like Gecko) Chrome/125.0.0.0 Safari/537.36 Edg/125.0.0.0",WebKit,Edge,125.0.0.0,Windows,10.0,https://app.prolific.com/,"en-US,en;q=0.9",lcw0nv,"[""exposure_4s_4.mp3""]",exposure,,exp_noresponse,,,,,,
null,null,audio-keyboard-response,66,1220731,0.0-16.0-50.0,13,tonic E5,2024-06-02 15:59:18,ecb3e64ed8cd71acc3b73d1b8ab0c1b0,75.207.30.35,"Mozilla/5.0 (Windows NT 10.0; Win64; x64) AppleWebKit/537.36 (KHTML, like Gecko) Chrome/125.0.0.0 Safari/537.36 Edg/125.0.0.0",WebKit,Edge,125.0.0.0,Windows,10.0,https://app.prolific.com/,"en-US,en;q=0.9",lcw0nv,"[""exposure_4s_23.mp3""]",exposure,,exp_noresponse,,,,,,
7668,5,audio-slider-response,67,1228410,0.0-16.0-51.0,13,tonic E5,2024-06-02 15:59:18,ecb3e64ed8cd71acc3b73d1b8ab0c1b0,75.207.30.35,"Mozilla/5.0 (Windows NT 10.0; Win64; x64) AppleWebKit/537.36 (KHTML, like Gecko) Chrome/125.0.0.0 Safari/537.36 Edg/125.0.0.0",WebKit,Edge,125.0.0.0,Windows,10.0,https://app.prolific.com/,"en-US,en;q=0.9",lcw0nv,"[""grammatical_1.mp3""]",exposure,,exp_liking,4,,,,,
null,null,audio-keyboard-response,68,1251655,0.0-16.0-52.0,13,tonic E5,2024-06-02 15:59:18,ecb3e64ed8cd71acc3b73d1b8ab0c1b0,75.207.30.35,"Mozilla/5.0 (Windows NT 10.0; Win64; x64) AppleWebKit/537.36 (KHTML, like Gecko) Chrome/125.0.0.0 Safari/537.36 Edg/125.0.0.0",WebKit,Edge,125.0.0.0,Windows,10.0,https://app.prolific.com/,"en-US,en;q=0.9",lcw0nv,"[""exposure_4s_11.mp3""]",exposure,,exp_noresponse,,,,,,
7889,3,audio-slider-response,69,1259554,0.0-16.0-53.0,13,tonic E5,2024-06-02 15:59:18,ecb3e64ed8cd71acc3b73d1b8ab0c1b0,75.207.30.35,"Mozilla/5.0 (Windows NT 10.0; Win64; x64) AppleWebKit/537.36 (KHTML, like Gecko) Chrome/125.0.0.0 Safari/537.36 Edg/125.0.0.0",WebKit,Edge,125.0.0.0,Windows,10.0,https://app.prolific.com/,"en-US,en;q=0.9",lcw0nv,"[""grammatical_7.mp3""]",exposure,,exp_liking,4,,,,,
null,null,audio-keyboard-response,70,1282556,0.0-16.0-54.0,13,tonic E5,2024-06-02 15:59:18,ecb3e64ed8cd71acc3b73d1b8ab0c1b0,75.207.30.35,"Mozilla/5.0 (Windows NT 10.0; Win64; x64) AppleWebKit/537.36 (KHTML, like Gecko) Chrome/125.0.0.0 Safari/537.36 Edg/125.0.0.0",WebKit,Edge,125.0.0.0,Windows,10.0,https://app.prolific.com/,"en-US,en;q=0.9",lcw0nv,"[""exposure_4s_18.mp3""]",exposure,,exp_noresponse,,,,,,
null,null,audio-keyboard-response,71,1305563,0.0-16.0-55.0,13,tonic E5,2024-06-02 15:59:18,ecb3e64ed8cd71acc3b73d1b8ab0c1b0,75.207.30.35,"Mozilla/5.0 (Windows NT 10.0; Win64; x64) AppleWebKit/537.36 (KHTML, like Gecko) Chrome/125.0.0.0 Safari/537.36 Edg/125.0.0.0",WebKit,Edge,125.0.0.0,Windows,10.0,https://app.prolific.com/,"en-US,en;q=0.9",lcw0nv,"[""exposure_4s_17.mp3""]",exposure,,exp_noresponse,,,,,,
null,null,audio-keyboard-response,72,1328570,0.0-16.0-56.0,13,tonic E5,2024-06-02 15:59:18,ecb3e64ed8cd71acc3b73d1b8ab0c1b0,75.207.30.35,"Mozilla/5.0 (Windows NT 10.0; Win64; x64) AppleWebKit/537.36 (KHTML, like Gecko) Chrome/125.0.0.0 Safari/537.36 Edg/125.0.0.0",WebKit,Edge,125.0.0.0,Windows,10.0,https://app.prolific.com/,"en-US,en;q=0.9",lcw0nv,"[""exposure_4s_1.mp3""]",exposure,,exp_noresponse,,,,,,
15964,1,audio-button-response,73,1344538,0.0-16.0-57.0,13,tonic E5,2024-06-02 15:59:18,ecb3e64ed8cd71acc3b73d1b8ab0c1b0,75.207.30.35,"Mozilla/5.0 (Windows NT 10.0; Win64; x64) AppleWebKit/537.36 (KHTML, like Gecko) Chrome/125.0.0.0 Safari/537.36 Edg/125.0.0.0",WebKit,Edge,125.0.0.0,Windows,10.0,https://app.prolific.com/,"en-US,en;q=0.9",lcw0nv,attn_length_easy_1.mp3,exposure,true,attncheck,,,,,,
null,null,audio-keyboard-response,74,1367541,0.0-16.0-58.0,13,tonic E5,2024-06-02 15:59:18,ecb3e64ed8cd71acc3b73d1b8ab0c1b0,75.207.30.35,"Mozilla/5.0 (Windows NT 10.0; Win64; x64) AppleWebKit/537.36 (KHTML, like Gecko) Chrome/125.0.0.0 Safari/537.36 Edg/125.0.0.0",WebKit,Edge,125.0.0.0,Windows,10.0,https://app.prolific.com/,"en-US,en;q=0.9",lcw0nv,"[""exposure_4s_30.mp3""]",exposure,,exp_noresponse,,,,,,
null,null,audio-keyboard-response,75,1390549,0.0-16.0-59.0,13,tonic E5,2024-06-02 15:59:18,ecb3e64ed8cd71acc3b73d1b8ab0c1b0,75.207.30.35,"Mozilla/5.0 (Windows NT 10.0; Win64; x64) AppleWebKit/537.36 (KHTML, like Gecko) Chrome/125.0.0.0 Safari/537.36 Edg/125.0.0.0",WebKit,Edge,125.0.0.0,Windows,10.0,https://app.prolific.com/,"en-US,en;q=0.9",lcw0nv,"[""exposure_4s_39.mp3""]",exposure,,exp_noresponse,,,,,,
7345, ,html-keyboard-response,76,1397900,0.0-17.0,13,tonic E5,2024-06-02 15:59:18,ecb3e64ed8cd71acc3b73d1b8ab0c1b0,75.207.30.35,"Mozilla/5.0 (Windows NT 10.0; Win64; x64) AppleWebKit/537.36 (KHTML, like Gecko) Chrome/125.0.0.0 Safari/537.36 Edg/125.0.0.0",WebKit,Edge,125.0.0.0,Windows,10.0,https://app.prolific.com/,"en-US,en;q=0.9",lcw0nv,"<p>You will now be asked to judge how similar some melodies are to what you have
    just listened to. </p>
    <p><b>Press the space bar to continue.</b></p>",,,,,,,,,
7226, ,html-keyboard-response,77,1405130,0.0-18.0,13,tonic E5,2024-06-02 15:59:18,ecb3e64ed8cd71acc3b73d1b8ab0c1b0,75.207.30.35,"Mozilla/5.0 (Windows NT 10.0; Win64; x64) AppleWebKit/537.36 (KHTML, like Gecko) Chrome/125.0.0.0 Safari/537.36 Edg/125.0.0.0",WebKit,Edge,125.0.0.0,Windows,10.0,https://app.prolific.com/,"en-US,en;q=0.9",lcw0nv,"<p>The changes in the melodies are subtle. If you are not sure, go with your gut feeling.</p>
    <p><b>Press the space bar to continue.</b></p>",,,,,,,,,
11691,6,audio-slider-response,78,1416962,0.0-19.0-0.0,13,tonic E5,2024-06-02 15:59:18,ecb3e64ed8cd71acc3b73d1b8ab0c1b0,75.207.30.35,"Mozilla/5.0 (Windows NT 10.0; Win64; x64) AppleWebKit/537.36 (KHTML, like Gecko) Chrome/125.0.0.0 Safari/537.36 Edg/125.0.0.0",WebKit,Edge,125.0.0.0,Windows,10.0,https://app.prolific.com/,"en-US,en;q=0.9",lcw0nv,agrammatical_7.mp3,grammar_learning,,,4,,,,,
10391,3,audio-slider-response,79,1427474,0.0-19.0-0.1,13,tonic E5,2024-06-02 15:59:18,ecb3e64ed8cd71acc3b73d1b8ab0c1b0,75.207.30.35,"Mozilla/5.0 (Windows NT 10.0; Win64; x64) AppleWebKit/537.36 (KHTML, like Gecko) Chrome/125.0.0.0 Safari/537.36 Edg/125.0.0.0",WebKit,Edge,125.0.0.0,Windows,10.0,https://app.prolific.com/,"en-US,en;q=0.9",lcw0nv,agrammatical_8.mp3,grammar_learning,,,4,,,,,
8571,7,audio-slider-response,80,1436145,0.0-19.0-0.2,13,tonic E5,2024-06-02 15:59:18,ecb3e64ed8cd71acc3b73d1b8ab0c1b0,75.207.30.35,"Mozilla/5.0 (Windows NT 10.0; Win64; x64) AppleWebKit/537.36 (KHTML, like Gecko) Chrome/125.0.0.0 Safari/537.36 Edg/125.0.0.0",WebKit,Edge,125.0.0.0,Windows,10.0,https://app.prolific.com/,"en-US,en;q=0.9",lcw0nv,grammatical_8.mp3,grammar_learning,,,4,,,,,
10040,5,audio-slider-response,81,1446281,0.0-19.0-0.3,13,tonic E5,2024-06-02 15:59:18,ecb3e64ed8cd71acc3b73d1b8ab0c1b0,75.207.30.35,"Mozilla/5.0 (Windows NT 10.0; Win64; x64) AppleWebKit/537.36 (KHTML, like Gecko) Chrome/125.0.0.0 Safari/537.36 Edg/125.0.0.0",WebKit,Edge,125.0.0.0,Windows,10.0,https://app.prolific.com/,"en-US,en;q=0.9",lcw0nv,grammatical_6.mp3,grammar_learning,,,4,,,,,
11950,3,audio-slider-response,82,1458337,0.0-19.0-0.4,13,tonic E5,2024-06-02 15:59:18,ecb3e64ed8cd71acc3b73d1b8ab0c1b0,75.207.30.35,"Mozilla/5.0 (Windows NT 10.0; Win64; x64) AppleWebKit/537.36 (KHTML, like Gecko) Chrome/125.0.0.0 Safari/537.36 Edg/125.0.0.0",WebKit,Edge,125.0.0.0,Windows,10.0,https://app.prolific.com/,"en-US,en;q=0.9",lcw0nv,agrammatical_1.mp3,grammar_learning,,,4,,,,,
10980,3,audio-slider-response,83,1469449,0.0-19.0-0.5,13,tonic E5,2024-06-02 15:59:18,ecb3e64ed8cd71acc3b73d1b8ab0c1b0,75.207.30.35,"Mozilla/5.0 (Windows NT 10.0; Win64; x64) AppleWebKit/537.36 (KHTML, like Gecko) Chrome/125.0.0.0 Safari/537.36 Edg/125.0.0.0",WebKit,Edge,125.0.0.0,Windows,10.0,https://app.prolific.com/,"en-US,en;q=0.9",lcw0nv,agrammatical_2.mp3,grammar_learning,,,4,,,,,
15020,6,audio-slider-response,84,1484473,0.0-19.0-0.6,13,tonic E5,2024-06-02 15:59:18,ecb3e64ed8cd71acc3b73d1b8ab0c1b0,75.207.30.35,"Mozilla/5.0 (Windows NT 10.0; Win64; x64) AppleWebKit/537.36 (KHTML, like Gecko) Chrome/125.0.0.0 Safari/537.36 Edg/125.0.0.0",WebKit,Edge,125.0.0.0,Windows,10.0,https://app.prolific.com/,"en-US,en;q=0.9",lcw0nv,grammatical_1.mp3,grammar_learning,,,4,,,,,
9140,5,audio-slider-response,85,1493722,0.0-19.0-0.7,13,tonic E5,2024-06-02 15:59:18,ecb3e64ed8cd71acc3b73d1b8ab0c1b0,75.207.30.35,"Mozilla/5.0 (Windows NT 10.0; Win64; x64) AppleWebKit/537.36 (KHTML, like Gecko) Chrome/125.0.0.0 Safari/537.36 Edg/125.0.0.0",WebKit,Edge,125.0.0.0,Windows,10.0,https://app.prolific.com/,"en-US,en;q=0.9",lcw0nv,grammatical_2.mp3,grammar_learning,,,4,,,,,
7880,3,audio-slider-response,86,1501602,0.0-19.0-0.8,13,tonic E5,2024-06-02 15:59:18,ecb3e64ed8cd71acc3b73d1b8ab0c1b0,75.207.30.35,"Mozilla/5.0 (Windows NT 10.0; Win64; x64) AppleWebKit/537.36 (KHTML, like Gecko) Chrome/125.0.0.0 Safari/537.36 Edg/125.0.0.0",WebKit,Edge,125.0.0.0,Windows,10.0,https://app.prolific.com/,"en-US,en;q=0.9",lcw0nv,grammatical_7.mp3,grammar_learning,,,4,,,,,
8850,5,audio-slider-response,87,1510570,0.0-19.0-0.9,13,tonic E5,2024-06-02 15:59:18,ecb3e64ed8cd71acc3b73d1b8ab0c1b0,75.207.30.35,"Mozilla/5.0 (Windows NT 10.0; Win64; x64) AppleWebKit/537.36 (KHTML, like Gecko) Chrome/125.0.0.0 Safari/537.36 Edg/125.0.0.0",WebKit,Edge,125.0.0.0,Windows,10.0,https://app.prolific.com/,"en-US,en;q=0.9",lcw0nv,grammatical_4.mp3,grammar_learning,,,4,,,,,
11648,6,audio-slider-response,88,1522346,0.0-19.0-0.10,13,tonic E5,2024-06-02 15:59:18,ecb3e64ed8cd71acc3b73d1b8ab0c1b0,75.207.30.35,"Mozilla/5.0 (Windows NT 10.0; Win64; x64) AppleWebKit/537.36 (KHTML, like Gecko) Chrome/125.0.0.0 Safari/537.36 Edg/125.0.0.0",WebKit,Edge,125.0.0.0,Windows,10.0,https://app.prolific.com/,"en-US,en;q=0.9",lcw0nv,grammatical_5.mp3,grammar_learning,,,4,,,,,
6989,3,audio-slider-response,89,1529458,0.0-19.0-0.11,13,tonic E5,2024-06-02 15:59:18,ecb3e64ed8cd71acc3b73d1b8ab0c1b0,75.207.30.35,"Mozilla/5.0 (Windows NT 10.0; Win64; x64) AppleWebKit/537.36 (KHTML, like Gecko) Chrome/125.0.0.0 Safari/537.36 Edg/125.0.0.0",WebKit,Edge,125.0.0.0,Windows,10.0,https://app.prolific.com/,"en-US,en;q=0.9",lcw0nv,agrammatical_5.mp3,grammar_learning,,,4,,,,,
10899,2,audio-slider-response,90,1540466,0.0-19.0-0.12,13,tonic E5,2024-06-02 15:59:18,ecb3e64ed8cd71acc3b73d1b8ab0c1b0,75.207.30.35,"Mozilla/5.0 (Windows NT 10.0; Win64; x64) AppleWebKit/537.36 (KHTML, like Gecko) Chrome/125.0.0.0 Safari/537.36 Edg/125.0.0.0",WebKit,Edge,125.0.0.0,Windows,10.0,https://app.prolific.com/,"en-US,en;q=0.9",lcw0nv,agrammatical_4.mp3,grammar_learning,,,4,,,,,
11291,3,audio-slider-response,91,1551866,0.0-19.0-0.13,13,tonic E5,2024-06-02 15:59:18,ecb3e64ed8cd71acc3b73d1b8ab0c1b0,75.207.30.35,"Mozilla/5.0 (Windows NT 10.0; Win64; x64) AppleWebKit/537.36 (KHTML, like Gecko) Chrome/125.0.0.0 Safari/537.36 Edg/125.0.0.0",WebKit,Edge,125.0.0.0,Windows,10.0,https://app.prolific.com/,"en-US,en;q=0.9",lcw0nv,agrammatical_6.mp3,grammar_learning,,,4,,,,,
14370,3,audio-slider-response,92,1566362,0.0-19.0-0.14,13,tonic E5,2024-06-02 15:59:18,ecb3e64ed8cd71acc3b73d1b8ab0c1b0,75.207.30.35,"Mozilla/5.0 (Windows NT 10.0; Win64; x64) AppleWebKit/537.36 (KHTML, like Gecko) Chrome/125.0.0.0 Safari/537.36 Edg/125.0.0.0",WebKit,Edge,125.0.0.0,Windows,10.0,https://app.prolific.com/,"en-US,en;q=0.9",lcw0nv,grammatical_3.mp3,grammar_learning,,,4,,,,,
10490,3,audio-slider-response,93,1576970,0.0-19.0-0.15,13,tonic E5,2024-06-02 15:59:18,ecb3e64ed8cd71acc3b73d1b8ab0c1b0,75.207.30.35,"Mozilla/5.0 (Windows NT 10.0; Win64; x64) AppleWebKit/537.36 (KHTML, like Gecko) Chrome/125.0.0.0 Safari/537.36 Edg/125.0.0.0",WebKit,Edge,125.0.0.0,Windows,10.0,https://app.prolific.com/,"en-US,en;q=0.9",lcw0nv,agrammatical_3.mp3,grammar_learning,,,4,,,,,
84150,"{""prolific_id"":""The way the piano starts and  the way it ends y counting""}",survey-html-form,94,1661123,0.0-20.0,13,tonic E5,2024-06-02 15:59:18,ecb3e64ed8cd71acc3b73d1b8ab0c1b0,75.207.30.35,"Mozilla/5.0 (Windows NT 10.0; Win64; x64) AppleWebKit/537.36 (KHTML, like Gecko) Chrome/125.0.0.0 Safari/537.36 Edg/125.0.0.0",WebKit,Edge,125.0.0.0,Windows,10.0,https://app.prolific.com/,"en-US,en;q=0.9",lcw0nv,,,,,,,,,,
7212, ,html-keyboard-response,95,1668338,0.0-21.0,13,tonic E5,2024-06-02 15:59:18,ecb3e64ed8cd71acc3b73d1b8ab0c1b0,75.207.30.35,"Mozilla/5.0 (Windows NT 10.0; Win64; x64) AppleWebKit/537.36 (KHTML, like Gecko) Chrome/125.0.0.0 Safari/537.36 Edg/125.0.0.0",WebKit,Edge,125.0.0.0,Windows,10.0,https://app.prolific.com/,"en-US,en;q=0.9",lcw0nv,"<p>In this part of the experiment, you will presented with two melodies in succession. 
    <p><b>Press the space bar to continue.</b></p>",,,,,,,,,
2108, ,html-keyboard-response,96,1670451,0.0-22.0,13,tonic E5,2024-06-02 15:59:18,ecb3e64ed8cd71acc3b73d1b8ab0c1b0,75.207.30.35,"Mozilla/5.0 (Windows NT 10.0; Win64; x64) AppleWebKit/537.36 (KHTML, like Gecko) Chrome/125.0.0.0 Safari/537.36 Edg/125.0.0.0",WebKit,Edge,125.0.0.0,Windows,10.0,https://app.prolific.com/,"en-US,en;q=0.9",lcw0nv,"<p>The melodies are nearly identical, but have either an added accent or one different note. </p>
    <p><b>Press the space bar to continue.</b></p>",,,,,,,,,
7093, ,html-keyboard-response,97,1677550,0.0-23.0,13,tonic E5,2024-06-02 15:59:18,ecb3e64ed8cd71acc3b73d1b8ab0c1b0,75.207.30.35,"Mozilla/5.0 (Windows NT 10.0; Win64; x64) AppleWebKit/537.36 (KHTML, like Gecko) Chrome/125.0.0.0 Safari/537.36 Edg/125.0.0.0",WebKit,Edge,125.0.0.0,Windows,10.0,https://app.prolific.com/,"en-US,en;q=0.9",lcw0nv,"<p>    Please choose the melody that <b>sounds better to you.</b></p>
    <p><b>Press the space bar to continue.</b></p>",,,,,,,,,
15489, ,html-keyboard-response,98,1693045,0.0-24.0,13,tonic E5,2024-06-02 15:59:18,ecb3e64ed8cd71acc3b73d1b8ab0c1b0,75.207.30.35,"Mozilla/5.0 (Windows NT 10.0; Win64; x64) AppleWebKit/537.36 (KHTML, like Gecko) Chrome/125.0.0.0 Safari/537.36 Edg/125.0.0.0",WebKit,Edge,125.0.0.0,Windows,10.0,https://app.prolific.com/,"en-US,en;q=0.9",lcw0nv,There are <b>32 questions</b> in this section.,,,,,,,,,
13360,j,audio-keyboard-response,99,1707605,0.0-25.0-0.0,13,tonic E5,2024-06-02 15:59:18,ecb3e64ed8cd71acc3b73d1b8ab0c1b0,75.207.30.35,"Mozilla/5.0 (Windows NT 10.0; Win64; x64) AppleWebKit/537.36 (KHTML, like Gecko) Chrome/125.0.0.0 Safari/537.36 Edg/125.0.0.0",WebKit,Edge,125.0.0.0,Windows,10.0,https://app.prolific.com/,"en-US,en;q=0.9",lcw0nv,fc_accents_32_3.mp3,forced_choice,,,,j,NA,true,false,
9970,f,audio-keyboard-response,100,1717731,0.0-25.0-0.1,13,tonic E5,2024-06-02 15:59:18,ecb3e64ed8cd71acc3b73d1b8ab0c1b0,75.207.30.35,"Mozilla/5.0 (Windows NT 10.0; Win64; x64) AppleWebKit/537.36 (KHTML, like Gecko) Chrome/125.0.0.0 Safari/537.36 Edg/125.0.0.0",WebKit,Edge,125.0.0.0,Windows,10.0,https://app.prolific.com/,"en-US,en;q=0.9",lcw0nv,fc_accents_34_3.mp3,forced_choice,,,,j,NA,false,false,
31219,j,audio-keyboard-response,101,1749247,0.0-25.0-0.2,13,tonic E5,2024-06-02 15:59:18,ecb3e64ed8cd71acc3b73d1b8ab0c1b0,75.207.30.35,"Mozilla/5.0 (Windows NT 10.0; Win64; x64) AppleWebKit/537.36 (KHTML, like Gecko) Chrome/125.0.0.0 Safari/537.36 Edg/125.0.0.0",WebKit,Edge,125.0.0.0,Windows,10.0,https://app.prolific.com/,"en-US,en;q=0.9",lcw0nv,fc_accents_54_3.mp3,forced_choice,,,,j,NA,true,false,
