rt,response,trial_type,trial_index,time_elapsed,internal_node_id,run_id,condition,recorded_at,source_code_version,ip,user_agent,device,browser,browser_version,platform,platform_version,referer,accept_language,subject,stimulus,task,correct,subtask,slider_start,accent,high_IC,accent_chosen,high_IC_chosen,question_order
20619,"{""prolific_id"":""5ff201c55ce3ae1a22fcf4d5""}",survey-html-form,0,20625,0.0-0.0,11,tonic A4,2024-06-01 10:24:29,dbf4c01b3354d3453d67d51790ec2aaf,86.158.164.74,"Mozilla/5.0 (Windows NT 10.0; Win64; x64) AppleWebKit/537.36 (KHTML, like Gecko) Chrome/124.0.0.0 Safari/537.36 Edg/124.0.0.0",WebKit,Edge,124.0.0.0,Windows,10.0,https://app.prolific.com/,"en-GB,en;q=0.9,en-US;q=0.8",wzewhd,,,,,,,,,,
2542, ,html-keyboard-response,1,23169,0.0-1.0,11,tonic A4,2024-06-01 10:24:29,dbf4c01b3354d3453d67d51790ec2aaf,86.158.164.74,"Mozilla/5.0 (Windows NT 10.0; Win64; x64) AppleWebKit/537.36 (KHTML, like Gecko) Chrome/124.0.0.0 Safari/537.36 Edg/124.0.0.0",WebKit,Edge,124.0.0.0,Windows,10.0,https://app.prolific.com/,"en-GB,en;q=0.9,en-US;q=0.8",wzewhd,"
    <p>Please complete the experiment in a quiet place.
      We highly recommend using headphones.</p>

    </p align = 'justify'> <b>Press the space bar to proceed.</b> </p>",,,,,,,,,
3002, ,html-keyboard-response,2,26171,0.0-2.0,11,tonic A4,2024-06-01 10:24:29,dbf4c01b3354d3453d67d51790ec2aaf,86.158.164.74,"Mozilla/5.0 (Windows NT 10.0; Win64; x64) AppleWebKit/537.36 (KHTML, like Gecko) Chrome/124.0.0.0 Safari/537.36 Edg/124.0.0.0",WebKit,Edge,124.0.0.0,Windows,10.0,https://app.prolific.com/,"en-GB,en;q=0.9,en-US;q=0.8",wzewhd,"
    <p>A series of soundchecks will now be played to help you adjust the volume
      to a comfortable level. </p>

    </p align = 'justify'> <b>Press the space bar to proceed.</b> </p>",,,,,,,,,
7189,1,audio-button-response,3,33984,0.0-3.0-0.0,11,tonic A4,2024-06-01 10:24:29,dbf4c01b3354d3453d67d51790ec2aaf,86.158.164.74,"Mozilla/5.0 (Windows NT 10.0; Win64; x64) AppleWebKit/537.36 (KHTML, like Gecko) Chrome/124.0.0.0 Safari/537.36 Edg/124.0.0.0",WebKit,Edge,124.0.0.0,Windows,10.0,https://app.prolific.com/,"en-GB,en;q=0.9,en-US;q=0.8",wzewhd,grammatical_1.mp3,,,,,,,,,
16802, ,html-keyboard-response,4,50789,0.0-4.0,11,tonic A4,2024-06-01 10:24:29,dbf4c01b3354d3453d67d51790ec2aaf,86.158.164.74,"Mozilla/5.0 (Windows NT 10.0; Win64; x64) AppleWebKit/537.36 (KHTML, like Gecko) Chrome/124.0.0.0 Safari/537.36 Edg/124.0.0.0",WebKit,Edge,124.0.0.0,Windows,10.0,https://app.prolific.com/,"en-GB,en;q=0.9,en-US;q=0.8",wzewhd,"<p width = 300 px>
    You will now hear two melodies in succession. 
    The notes in each melody are the same, but there is an accent on one note for one of the melodies. 
    <b>Listen for which melody has the accent.</b>
    </p>
    
    Press the space bar to continue.",,,,,,,,,
3309, ,html-keyboard-response,5,54100,0.0-5.0,11,tonic A4,2024-06-01 10:24:29,dbf4c01b3354d3453d67d51790ec2aaf,86.158.164.74,"Mozilla/5.0 (Windows NT 10.0; Win64; x64) AppleWebKit/537.36 (KHTML, like Gecko) Chrome/124.0.0.0 Safari/537.36 Edg/124.0.0.0",WebKit,Edge,124.0.0.0,Windows,10.0,https://app.prolific.com/,"en-GB,en;q=0.9,en-US;q=0.8",wzewhd,"<p width = 300 px>
    <b>You must score at least 2/3 to proceed with the experiment.</b>
    </p>
    
    Press the space bar to continue.",,,,,,,,,
7179,1,audio-button-response,6,61403,0.0-6.0,11,tonic A4,2024-06-01 10:24:29,dbf4c01b3354d3453d67d51790ec2aaf,86.158.164.74,"Mozilla/5.0 (Windows NT 10.0; Win64; x64) AppleWebKit/537.36 (KHTML, like Gecko) Chrome/124.0.0.0 Safari/537.36 Edg/124.0.0.0",WebKit,Edge,124.0.0.0,Windows,10.0,https://app.prolific.com/,"en-GB,en;q=0.9,en-US;q=0.8",wzewhd,fc_accents_32_1.mp3,soundcheck,true,,,,,,,
1010, ,html-keyboard-response,7,62415,0.0-7.0,11,tonic A4,2024-06-01 10:24:29,dbf4c01b3354d3453d67d51790ec2aaf,86.158.164.74,"Mozilla/5.0 (Windows NT 10.0; Win64; x64) AppleWebKit/537.36 (KHTML, like Gecko) Chrome/124.0.0.0 Safari/537.36 Edg/124.0.0.0",WebKit,Edge,124.0.0.0,Windows,10.0,https://app.prolific.com/,"en-GB,en;q=0.9,en-US;q=0.8",wzewhd,<p>Correct!</p> Press the space bar to continue.,,,,,,,,,
6600,1,audio-button-response,8,69120,0.0-8.0,11,tonic A4,2024-06-01 10:24:29,dbf4c01b3354d3453d67d51790ec2aaf,86.158.164.74,"Mozilla/5.0 (Windows NT 10.0; Win64; x64) AppleWebKit/537.36 (KHTML, like Gecko) Chrome/124.0.0.0 Safari/537.36 Edg/124.0.0.0",WebKit,Edge,124.0.0.0,Windows,10.0,https://app.prolific.com/,"en-GB,en;q=0.9,en-US;q=0.8",wzewhd,fc_accents_56_4.mp3,soundcheck,true,,,,,,,
817, ,html-keyboard-response,9,69939,0.0-9.0,11,tonic A4,2024-06-01 10:24:29,dbf4c01b3354d3453d67d51790ec2aaf,86.158.164.74,"Mozilla/5.0 (Windows NT 10.0; Win64; x64) AppleWebKit/537.36 (KHTML, like Gecko) Chrome/124.0.0.0 Safari/537.36 Edg/124.0.0.0",WebKit,Edge,124.0.0.0,Windows,10.0,https://app.prolific.com/,"en-GB,en;q=0.9,en-US;q=0.8",wzewhd,<p>Correct!</p> Press the space bar to continue.,,,,,,,,,
6469,1,audio-button-response,10,76519,0.0-10.0,11,tonic A4,2024-06-01 10:24:29,dbf4c01b3354d3453d67d51790ec2aaf,86.158.164.74,"Mozilla/5.0 (Windows NT 10.0; Win64; x64) AppleWebKit/537.36 (KHTML, like Gecko) Chrome/124.0.0.0 Safari/537.36 Edg/124.0.0.0",WebKit,Edge,124.0.0.0,Windows,10.0,https://app.prolific.com/,"en-GB,en;q=0.9,en-US;q=0.8",wzewhd,fc_accents_54_4.mp3,soundcheck,true,,,,,,,
823, ,html-keyboard-response,11,77343,0.0-11.0,11,tonic A4,2024-06-01 10:24:29,dbf4c01b3354d3453d67d51790ec2aaf,86.158.164.74,"Mozilla/5.0 (Windows NT 10.0; Win64; x64) AppleWebKit/537.36 (KHTML, like Gecko) Chrome/124.0.0.0 Safari/537.36 Edg/124.0.0.0",WebKit,Edge,124.0.0.0,Windows,10.0,https://app.prolific.com/,"en-GB,en;q=0.9,en-US;q=0.8",wzewhd,<p>Correct!</p> Press the space bar to continue.,,,,,,,,,
4724, ,html-keyboard-response,12,82068,0.0-12.0,11,tonic A4,2024-06-01 10:24:29,dbf4c01b3354d3453d67d51790ec2aaf,86.158.164.74,"Mozilla/5.0 (Windows NT 10.0; Win64; x64) AppleWebKit/537.36 (KHTML, like Gecko) Chrome/124.0.0.0 Safari/537.36 Edg/124.0.0.0",WebKit,Edge,124.0.0.0,Windows,10.0,https://app.prolific.com/,"en-GB,en;q=0.9,en-US;q=0.8",wzewhd,"If you got <b>less than 2/3</b> of the previous soundcheck questions correct, <b>we unfortunately cannot use your data or pay you</b>. Please exit the experiment now.
    
    <p>If you got <b>more than 2/3</b> correct, press the space bar to continue</p>.",,,,,,,,,
3436, ,html-keyboard-response,13,85505,0.0-13.0,11,tonic A4,2024-06-01 10:24:29,dbf4c01b3354d3453d67d51790ec2aaf,86.158.164.74,"Mozilla/5.0 (Windows NT 10.0; Win64; x64) AppleWebKit/537.36 (KHTML, like Gecko) Chrome/124.0.0.0 Safari/537.36 Edg/124.0.0.0",WebKit,Edge,124.0.0.0,Windows,10.0,https://app.prolific.com/,"en-GB,en;q=0.9,en-US;q=0.8",wzewhd,"<p>Please listen carefully to the following set of melodies. 
      You will occassionally be asked some basic questions about some of the melodies to check your attention level. </p>
    <p><b>Press the space bar to continue.</b></p>",,,,,,,,,
3698, ,html-keyboard-response,14,89204,0.0-14.0,11,tonic A4,2024-06-01 10:24:29,dbf4c01b3354d3453d67d51790ec2aaf,86.158.164.74,"Mozilla/5.0 (Windows NT 10.0; Win64; x64) AppleWebKit/537.36 (KHTML, like Gecko) Chrome/124.0.0.0 Safari/537.36 Edg/124.0.0.0",WebKit,Edge,124.0.0.0,Windows,10.0,https://app.prolific.com/,"en-GB,en;q=0.9,en-US;q=0.8",wzewhd,"<p>The attention questions vary in difficulty, but you must get at least some questions correct for us to pay you.</p>
    <p><b>Press the space bar to continue.</b></p>",,,,,,,,,
3578, ,html-keyboard-response,15,92783,0.0-15.0,11,tonic A4,2024-06-01 10:24:29,dbf4c01b3354d3453d67d51790ec2aaf,86.158.164.74,"Mozilla/5.0 (Windows NT 10.0; Win64; x64) AppleWebKit/537.36 (KHTML, like Gecko) Chrome/124.0.0.0 Safari/537.36 Edg/124.0.0.0",WebKit,Edge,124.0.0.0,Windows,10.0,https://app.prolific.com/,"en-GB,en;q=0.9,en-US;q=0.8",wzewhd,"
    This part of the experiment should take <b>15-20 minutes</b>. 
    <p><b>Press the space bar to begin.</b></p>",,,,,,,,,
null,null,audio-keyboard-response,16,116164,0.0-16.0-0.0,11,tonic A4,2024-06-01 10:24:29,dbf4c01b3354d3453d67d51790ec2aaf,86.158.164.74,"Mozilla/5.0 (Windows NT 10.0; Win64; x64) AppleWebKit/537.36 (KHTML, like Gecko) Chrome/124.0.0.0 Safari/537.36 Edg/124.0.0.0",WebKit,Edge,124.0.0.0,Windows,10.0,https://app.prolific.com/,"en-GB,en;q=0.9,en-US;q=0.8",wzewhd,"[""exposure_4s_18.mp3""]",exposure,,exp_noresponse,,,,,,
8579,1,audio-button-response,17,124866,0.0-16.0-1.0,11,tonic A4,2024-06-01 10:24:29,dbf4c01b3354d3453d67d51790ec2aaf,86.158.164.74,"Mozilla/5.0 (Windows NT 10.0; Win64; x64) AppleWebKit/537.36 (KHTML, like Gecko) Chrome/124.0.0.0 Safari/537.36 Edg/124.0.0.0",WebKit,Edge,124.0.0.0,Windows,10.0,https://app.prolific.com/,"en-GB,en;q=0.9,en-US;q=0.8",wzewhd,attn_length_easy_1.mp3,exposure,true,attncheck,,,,,,
null,null,audio-keyboard-response,18,148078,0.0-16.0-2.0,11,tonic A4,2024-06-01 10:24:29,dbf4c01b3354d3453d67d51790ec2aaf,86.158.164.74,"Mozilla/5.0 (Windows NT 10.0; Win64; x64) AppleWebKit/537.36 (KHTML, like Gecko) Chrome/124.0.0.0 Safari/537.36 Edg/124.0.0.0",WebKit,Edge,124.0.0.0,Windows,10.0,https://app.prolific.com/,"en-GB,en;q=0.9,en-US;q=0.8",wzewhd,"[""exposure_4s_34.mp3""]",exposure,,exp_noresponse,,,,,,
8371,1,audio-button-response,19,156452,0.0-16.0-3.0,11,tonic A4,2024-06-01 10:24:29,dbf4c01b3354d3453d67d51790ec2aaf,86.158.164.74,"Mozilla/5.0 (Windows NT 10.0; Win64; x64) AppleWebKit/537.36 (KHTML, like Gecko) Chrome/124.0.0.0 Safari/537.36 Edg/124.0.0.0",WebKit,Edge,124.0.0.0,Windows,10.0,https://app.prolific.com/,"en-GB,en;q=0.9,en-US;q=0.8",wzewhd,attn_length_easy_1.mp3,exposure,true,attncheck,,,,,,
7080,5,audio-slider-response,20,163548,0.0-16.0-4.0,11,tonic A4,2024-06-01 10:24:29,dbf4c01b3354d3453d67d51790ec2aaf,86.158.164.74,"Mozilla/5.0 (Windows NT 10.0; Win64; x64) AppleWebKit/537.36 (KHTML, like Gecko) Chrome/124.0.0.0 Safari/537.36 Edg/124.0.0.0",WebKit,Edge,124.0.0.0,Windows,10.0,https://app.prolific.com/,"en-GB,en;q=0.9,en-US;q=0.8",wzewhd,"[""grammatical_1.mp3""]",exposure,,exp_liking,4,,,,,
null,null,audio-keyboard-response,21,186914,0.0-16.0-5.0,11,tonic A4,2024-06-01 10:24:29,dbf4c01b3354d3453d67d51790ec2aaf,86.158.164.74,"Mozilla/5.0 (Windows NT 10.0; Win64; x64) AppleWebKit/537.36 (KHTML, like Gecko) Chrome/124.0.0.0 Safari/537.36 Edg/124.0.0.0",WebKit,Edge,124.0.0.0,Windows,10.0,https://app.prolific.com/,"en-GB,en;q=0.9,en-US;q=0.8",wzewhd,"[""exposure_4s_26.mp3""]",exposure,,exp_noresponse,,,,,,
5429,5,audio-slider-response,22,192436,0.0-16.0-6.0,11,tonic A4,2024-06-01 10:24:29,dbf4c01b3354d3453d67d51790ec2aaf,86.158.164.74,"Mozilla/5.0 (Windows NT 10.0; Win64; x64) AppleWebKit/537.36 (KHTML, like Gecko) Chrome/124.0.0.0 Safari/537.36 Edg/124.0.0.0",WebKit,Edge,124.0.0.0,Windows,10.0,https://app.prolific.com/,"en-GB,en;q=0.9,en-US;q=0.8",wzewhd,"[""grammatical_7.mp3""]",exposure,,exp_liking,4,,,,,
8611,5,audio-slider-response,23,201052,0.0-16.0-7.0,11,tonic A4,2024-06-01 10:24:29,dbf4c01b3354d3453d67d51790ec2aaf,86.158.164.74,"Mozilla/5.0 (Windows NT 10.0; Win64; x64) AppleWebKit/537.36 (KHTML, like Gecko) Chrome/124.0.0.0 Safari/537.36 Edg/124.0.0.0",WebKit,Edge,124.0.0.0,Windows,10.0,https://app.prolific.com/,"en-GB,en;q=0.9,en-US;q=0.8",wzewhd,"[""grammatical_7.mp3""]",exposure,,exp_liking,4,,,,,
13251,0,audio-button-response,24,214452,0.0-16.0-8.0,11,tonic A4,2024-06-01 10:24:29,dbf4c01b3354d3453d67d51790ec2aaf,86.158.164.74,"Mozilla/5.0 (Windows NT 10.0; Win64; x64) AppleWebKit/537.36 (KHTML, like Gecko) Chrome/124.0.0.0 Safari/537.36 Edg/124.0.0.0",WebKit,Edge,124.0.0.0,Windows,10.0,https://app.prolific.com/,"en-GB,en;q=0.9,en-US;q=0.8",wzewhd,attn_length_hard_1.mp3,exposure,false,attncheck,,,,,,
null,null,audio-keyboard-response,25,237678,0.0-16.0-9.0,11,tonic A4,2024-06-01 10:24:29,dbf4c01b3354d3453d67d51790ec2aaf,86.158.164.74,"Mozilla/5.0 (Windows NT 10.0; Win64; x64) AppleWebKit/537.36 (KHTML, like Gecko) Chrome/124.0.0.0 Safari/537.36 Edg/124.0.0.0",WebKit,Edge,124.0.0.0,Windows,10.0,https://app.prolific.com/,"en-GB,en;q=0.9,en-US;q=0.8",wzewhd,"[""exposure_4s_41.mp3""]",exposure,,exp_noresponse,,,,,,
null,null,audio-keyboard-response,26,261064,0.0-16.0-10.0,11,tonic A4,2024-06-01 10:24:29,dbf4c01b3354d3453d67d51790ec2aaf,86.158.164.74,"Mozilla/5.0 (Windows NT 10.0; Win64; x64) AppleWebKit/537.36 (KHTML, like Gecko) Chrome/124.0.0.0 Safari/537.36 Edg/124.0.0.0",WebKit,Edge,124.0.0.0,Windows,10.0,https://app.prolific.com/,"en-GB,en;q=0.9,en-US;q=0.8",wzewhd,"[""exposure_4s_30.mp3""]",exposure,,exp_noresponse,,,,,,
null,null,audio-keyboard-response,27,284296,0.0-16.0-11.0,11,tonic A4,2024-06-01 10:24:29,dbf4c01b3354d3453d67d51790ec2aaf,86.158.164.74,"Mozilla/5.0 (Windows NT 10.0; Win64; x64) AppleWebKit/537.36 (KHTML, like Gecko) Chrome/124.0.0.0 Safari/537.36 Edg/124.0.0.0",WebKit,Edge,124.0.0.0,Windows,10.0,https://app.prolific.com/,"en-GB,en;q=0.9,en-US;q=0.8",wzewhd,"[""exposure_4s_3.mp3""]",exposure,,exp_noresponse,,,,,,
null,null,audio-keyboard-response,28,307521,0.0-16.0-12.0,11,tonic A4,2024-06-01 10:24:29,dbf4c01b3354d3453d67d51790ec2aaf,86.158.164.74,"Mozilla/5.0 (Windows NT 10.0; Win64; x64) AppleWebKit/537.36 (KHTML, like Gecko) Chrome/124.0.0.0 Safari/537.36 Edg/124.0.0.0",WebKit,Edge,124.0.0.0,Windows,10.0,https://app.prolific.com/,"en-GB,en;q=0.9,en-US;q=0.8",wzewhd,"[""exposure_4s_21.mp3""]",exposure,,exp_noresponse,,,,,,
null,null,audio-keyboard-response,29,330781,0.0-16.0-13.0,11,tonic A4,2024-06-01 10:24:29,dbf4c01b3354d3453d67d51790ec2aaf,86.158.164.74,"Mozilla/5.0 (Windows NT 10.0; Win64; x64) AppleWebKit/537.36 (KHTML, like Gecko) Chrome/124.0.0.0 Safari/537.36 Edg/124.0.0.0",WebKit,Edge,124.0.0.0,Windows,10.0,https://app.prolific.com/,"en-GB,en;q=0.9,en-US;q=0.8",wzewhd,"[""exposure_4s_5.mp3""]",exposure,,exp_noresponse,,,,,,
null,null,audio-keyboard-response,30,353995,0.0-16.0-14.0,11,tonic A4,2024-06-01 10:24:29,dbf4c01b3354d3453d67d51790ec2aaf,86.158.164.74,"Mozilla/5.0 (Windows NT 10.0; Win64; x64) AppleWebKit/537.36 (KHTML, like Gecko) Chrome/124.0.0.0 Safari/537.36 Edg/124.0.0.0",WebKit,Edge,124.0.0.0,Windows,10.0,https://app.prolific.com/,"en-GB,en;q=0.9,en-US;q=0.8",wzewhd,"[""exposure_4s_16.mp3""]",exposure,,exp_noresponse,,,,,,
null,null,audio-keyboard-response,31,377012,0.0-16.0-15.0,11,tonic A4,2024-06-01 10:24:29,dbf4c01b3354d3453d67d51790ec2aaf,86.158.164.74,"Mozilla/5.0 (Windows NT 10.0; Win64; x64) AppleWebKit/537.36 (KHTML, like Gecko) Chrome/124.0.0.0 Safari/537.36 Edg/124.0.0.0",WebKit,Edge,124.0.0.0,Windows,10.0,https://app.prolific.com/,"en-GB,en;q=0.9,en-US;q=0.8",wzewhd,"[""exposure_4s_34.mp3""]",exposure,,exp_noresponse,,,,,,
null,null,audio-keyboard-response,32,400014,0.0-16.0-16.0,11,tonic A4,2024-06-01 10:24:29,dbf4c01b3354d3453d67d51790ec2aaf,86.158.164.74,"Mozilla/5.0 (Windows NT 10.0; Win64; x64) AppleWebKit/537.36 (KHTML, like Gecko) Chrome/124.0.0.0 Safari/537.36 Edg/124.0.0.0",WebKit,Edge,124.0.0.0,Windows,10.0,https://app.prolific.com/,"en-GB,en;q=0.9,en-US;q=0.8",wzewhd,"[""exposure_4s_26.mp3""]",exposure,,exp_noresponse,,,,,,
null,null,audio-keyboard-response,33,423287,0.0-16.0-17.0,11,tonic A4,2024-06-01 10:24:29,dbf4c01b3354d3453d67d51790ec2aaf,86.158.164.74,"Mozilla/5.0 (Windows NT 10.0; Win64; x64) AppleWebKit/537.36 (KHTML, like Gecko) Chrome/124.0.0.0 Safari/537.36 Edg/124.0.0.0",WebKit,Edge,124.0.0.0,Windows,10.0,https://app.prolific.com/,"en-GB,en;q=0.9,en-US;q=0.8",wzewhd,"[""exposure_4s_12.mp3""]",exposure,,exp_noresponse,,,,,,
null,null,audio-keyboard-response,34,446296,0.0-16.0-18.0,11,tonic A4,2024-06-01 10:24:29,dbf4c01b3354d3453d67d51790ec2aaf,86.158.164.74,"Mozilla/5.0 (Windows NT 10.0; Win64; x64) AppleWebKit/537.36 (KHTML, like Gecko) Chrome/124.0.0.0 Safari/537.36 Edg/124.0.0.0",WebKit,Edge,124.0.0.0,Windows,10.0,https://app.prolific.com/,"en-GB,en;q=0.9,en-US;q=0.8",wzewhd,"[""exposure_4s_3.mp3""]",exposure,,exp_noresponse,,,,,,
8149,1,audio-button-response,35,454718,0.0-16.0-19.0,11,tonic A4,2024-06-01 10:24:29,dbf4c01b3354d3453d67d51790ec2aaf,86.158.164.74,"Mozilla/5.0 (Windows NT 10.0; Win64; x64) AppleWebKit/537.36 (KHTML, like Gecko) Chrome/124.0.0.0 Safari/537.36 Edg/124.0.0.0",WebKit,Edge,124.0.0.0,Windows,10.0,https://app.prolific.com/,"en-GB,en;q=0.9,en-US;q=0.8",wzewhd,attn_length_int_1.mp3,exposure,true,attncheck,,,,,,
null,null,audio-keyboard-response,36,477929,0.0-16.0-20.0,11,tonic A4,2024-06-01 10:24:29,dbf4c01b3354d3453d67d51790ec2aaf,86.158.164.74,"Mozilla/5.0 (Windows NT 10.0; Win64; x64) AppleWebKit/537.36 (KHTML, like Gecko) Chrome/124.0.0.0 Safari/537.36 Edg/124.0.0.0",WebKit,Edge,124.0.0.0,Windows,10.0,https://app.prolific.com/,"en-GB,en;q=0.9,en-US;q=0.8",wzewhd,"[""exposure_4s_15.mp3""]",exposure,,exp_noresponse,,,,,,
8560,1,audio-button-response,37,486486,0.0-16.0-21.0,11,tonic A4,2024-06-01 10:24:29,dbf4c01b3354d3453d67d51790ec2aaf,86.158.164.74,"Mozilla/5.0 (Windows NT 10.0; Win64; x64) AppleWebKit/537.36 (KHTML, like Gecko) Chrome/124.0.0.0 Safari/537.36 Edg/124.0.0.0",WebKit,Edge,124.0.0.0,Windows,10.0,https://app.prolific.com/,"en-GB,en;q=0.9,en-US;q=0.8",wzewhd,attn_length_easy_1.mp3,exposure,true,attncheck,,,,,,
4909,5,audio-slider-response,38,491665,0.0-16.0-22.0,11,tonic A4,2024-06-01 10:24:29,dbf4c01b3354d3453d67d51790ec2aaf,86.158.164.74,"Mozilla/5.0 (Windows NT 10.0; Win64; x64) AppleWebKit/537.36 (KHTML, like Gecko) Chrome/124.0.0.0 Safari/537.36 Edg/124.0.0.0",WebKit,Edge,124.0.0.0,Windows,10.0,https://app.prolific.com/,"en-GB,en;q=0.9,en-US;q=0.8",wzewhd,"[""grammatical_4.mp3""]",exposure,,exp_liking,4,,,,,
null,null,audio-keyboard-response,39,514880,0.0-16.0-23.0,11,tonic A4,2024-06-01 10:24:29,dbf4c01b3354d3453d67d51790ec2aaf,86.158.164.74,"Mozilla/5.0 (Windows NT 10.0; Win64; x64) AppleWebKit/537.36 (KHTML, like Gecko) Chrome/124.0.0.0 Safari/537.36 Edg/124.0.0.0",WebKit,Edge,124.0.0.0,Windows,10.0,https://app.prolific.com/,"en-GB,en;q=0.9,en-US;q=0.8",wzewhd,"[""exposure_4s_38.mp3""]",exposure,,exp_noresponse,,,,,,
null,null,audio-keyboard-response,40,537896,0.0-16.0-24.0,11,tonic A4,2024-06-01 10:24:29,dbf4c01b3354d3453d67d51790ec2aaf,86.158.164.74,"Mozilla/5.0 (Windows NT 10.0; Win64; x64) AppleWebKit/537.36 (KHTML, like Gecko) Chrome/124.0.0.0 Safari/537.36 Edg/124.0.0.0",WebKit,Edge,124.0.0.0,Windows,10.0,https://app.prolific.com/,"en-GB,en;q=0.9,en-US;q=0.8",wzewhd,"[""exposure_4s_26.mp3""]",exposure,,exp_noresponse,,,,,,
null,null,audio-keyboard-response,41,561113,0.0-16.0-25.0,11,tonic A4,2024-06-01 10:24:29,dbf4c01b3354d3453d67d51790ec2aaf,86.158.164.74,"Mozilla/5.0 (Windows NT 10.0; Win64; x64) AppleWebKit/537.36 (KHTML, like Gecko) Chrome/124.0.0.0 Safari/537.36 Edg/124.0.0.0",WebKit,Edge,124.0.0.0,Windows,10.0,https://app.prolific.com/,"en-GB,en;q=0.9,en-US;q=0.8",wzewhd,"[""exposure_4s_28.mp3""]",exposure,,exp_noresponse,,,,,,
null,null,audio-keyboard-response,42,584377,0.0-16.0-26.0,11,tonic A4,2024-06-01 10:24:29,dbf4c01b3354d3453d67d51790ec2aaf,86.158.164.74,"Mozilla/5.0 (Windows NT 10.0; Win64; x64) AppleWebKit/537.36 (KHTML, like Gecko) Chrome/124.0.0.0 Safari/537.36 Edg/124.0.0.0",WebKit,Edge,124.0.0.0,Windows,10.0,https://app.prolific.com/,"en-GB,en;q=0.9,en-US;q=0.8",wzewhd,"[""exposure_4s_20.mp3""]",exposure,,exp_noresponse,,,,,,
null,null,audio-keyboard-response,43,607595,0.0-16.0-27.0,11,tonic A4,2024-06-01 10:24:29,dbf4c01b3354d3453d67d51790ec2aaf,86.158.164.74,"Mozilla/5.0 (Windows NT 10.0; Win64; x64) AppleWebKit/537.36 (KHTML, like Gecko) Chrome/124.0.0.0 Safari/537.36 Edg/124.0.0.0",WebKit,Edge,124.0.0.0,Windows,10.0,https://app.prolific.com/,"en-GB,en;q=0.9,en-US;q=0.8",wzewhd,"[""exposure_4s_22.mp3""]",exposure,,exp_noresponse,,,,,,
7552,1,audio-button-response,44,615152,0.0-16.0-28.0,11,tonic A4,2024-06-01 10:24:29,dbf4c01b3354d3453d67d51790ec2aaf,86.158.164.74,"Mozilla/5.0 (Windows NT 10.0; Win64; x64) AppleWebKit/537.36 (KHTML, like Gecko) Chrome/124.0.0.0 Safari/537.36 Edg/124.0.0.0",WebKit,Edge,124.0.0.0,Windows,10.0,https://app.prolific.com/,"en-GB,en;q=0.9,en-US;q=0.8",wzewhd,attn_length_int_1.mp3,exposure,true,attncheck,,,,,,
null,null,audio-keyboard-response,45,638379,0.0-16.0-29.0,11,tonic A4,2024-06-01 10:24:29,dbf4c01b3354d3453d67d51790ec2aaf,86.158.164.74,"Mozilla/5.0 (Windows NT 10.0; Win64; x64) AppleWebKit/537.36 (KHTML, like Gecko) Chrome/124.0.0.0 Safari/537.36 Edg/124.0.0.0",WebKit,Edge,124.0.0.0,Windows,10.0,https://app.prolific.com/,"en-GB,en;q=0.9,en-US;q=0.8",wzewhd,"[""exposure_4s_37.mp3""]",exposure,,exp_noresponse,,,,,,
9109,4,audio-slider-response,46,647736,0.0-16.0-30.0,11,tonic A4,2024-06-01 10:24:29,dbf4c01b3354d3453d67d51790ec2aaf,86.158.164.74,"Mozilla/5.0 (Windows NT 10.0; Win64; x64) AppleWebKit/537.36 (KHTML, like Gecko) Chrome/124.0.0.0 Safari/537.36 Edg/124.0.0.0",WebKit,Edge,124.0.0.0,Windows,10.0,https://app.prolific.com/,"en-GB,en;q=0.9,en-US;q=0.8",wzewhd,"[""grammatical_6.mp3""]",exposure,,exp_liking,4,,,,,
null,null,audio-keyboard-response,47,670948,0.0-16.0-31.0,11,tonic A4,2024-06-01 10:24:29,dbf4c01b3354d3453d67d51790ec2aaf,86.158.164.74,"Mozilla/5.0 (Windows NT 10.0; Win64; x64) AppleWebKit/537.36 (KHTML, like Gecko) Chrome/124.0.0.0 Safari/537.36 Edg/124.0.0.0",WebKit,Edge,124.0.0.0,Windows,10.0,https://app.prolific.com/,"en-GB,en;q=0.9,en-US;q=0.8",wzewhd,"[""exposure_4s_25.mp3""]",exposure,,exp_noresponse,,,,,,
null,null,audio-keyboard-response,48,693960,0.0-16.0-32.0,11,tonic A4,2024-06-01 10:24:29,dbf4c01b3354d3453d67d51790ec2aaf,86.158.164.74,"Mozilla/5.0 (Windows NT 10.0; Win64; x64) AppleWebKit/537.36 (KHTML, like Gecko) Chrome/124.0.0.0 Safari/537.36 Edg/124.0.0.0",WebKit,Edge,124.0.0.0,Windows,10.0,https://app.prolific.com/,"en-GB,en;q=0.9,en-US;q=0.8",wzewhd,"[""exposure_4s_18.mp3""]",exposure,,exp_noresponse,,,,,,
null,null,audio-keyboard-response,49,717213,0.0-16.0-33.0,11,tonic A4,2024-06-01 10:24:29,dbf4c01b3354d3453d67d51790ec2aaf,86.158.164.74,"Mozilla/5.0 (Windows NT 10.0; Win64; x64) AppleWebKit/537.36 (KHTML, like Gecko) Chrome/124.0.0.0 Safari/537.36 Edg/124.0.0.0",WebKit,Edge,124.0.0.0,Windows,10.0,https://app.prolific.com/,"en-GB,en;q=0.9,en-US;q=0.8",wzewhd,"[""exposure_4s_32.mp3""]",exposure,,exp_noresponse,,,,,,
null,null,audio-keyboard-response,50,740596,0.0-16.0-34.0,11,tonic A4,2024-06-01 10:24:29,dbf4c01b3354d3453d67d51790ec2aaf,86.158.164.74,"Mozilla/5.0 (Windows NT 10.0; Win64; x64) AppleWebKit/537.36 (KHTML, like Gecko) Chrome/124.0.0.0 Safari/537.36 Edg/124.0.0.0",WebKit,Edge,124.0.0.0,Windows,10.0,https://app.prolific.com/,"en-GB,en;q=0.9,en-US;q=0.8",wzewhd,"[""exposure_4s_17.mp3""]",exposure,,exp_noresponse,,,,,,
null,null,audio-keyboard-response,51,763829,0.0-16.0-35.0,11,tonic A4,2024-06-01 10:24:29,dbf4c01b3354d3453d67d51790ec2aaf,86.158.164.74,"Mozilla/5.0 (Windows NT 10.0; Win64; x64) AppleWebKit/537.36 (KHTML, like Gecko) Chrome/124.0.0.0 Safari/537.36 Edg/124.0.0.0",WebKit,Edge,124.0.0.0,Windows,10.0,https://app.prolific.com/,"en-GB,en;q=0.9,en-US;q=0.8",wzewhd,"[""exposure_4s_14.mp3""]",exposure,,exp_noresponse,,,,,,
null,null,audio-keyboard-response,52,787047,0.0-16.0-36.0,11,tonic A4,2024-06-01 10:24:29,dbf4c01b3354d3453d67d51790ec2aaf,86.158.164.74,"Mozilla/5.0 (Windows NT 10.0; Win64; x64) AppleWebKit/537.36 (KHTML, like Gecko) Chrome/124.0.0.0 Safari/537.36 Edg/124.0.0.0",WebKit,Edge,124.0.0.0,Windows,10.0,https://app.prolific.com/,"en-GB,en;q=0.9,en-US;q=0.8",wzewhd,"[""exposure_4s_35.mp3""]",exposure,,exp_noresponse,,,,,,
null,null,audio-keyboard-response,53,810326,0.0-16.0-37.0,11,tonic A4,2024-06-01 10:24:29,dbf4c01b3354d3453d67d51790ec2aaf,86.158.164.74,"Mozilla/5.0 (Windows NT 10.0; Win64; x64) AppleWebKit/537.36 (KHTML, like Gecko) Chrome/124.0.0.0 Safari/537.36 Edg/124.0.0.0",WebKit,Edge,124.0.0.0,Windows,10.0,https://app.prolific.com/,"en-GB,en;q=0.9,en-US;q=0.8",wzewhd,"[""exposure_4s_27.mp3""]",exposure,,exp_noresponse,,,,,,
null,null,audio-keyboard-response,54,833545,0.0-16.0-38.0,11,tonic A4,2024-06-01 10:24:29,dbf4c01b3354d3453d67d51790ec2aaf,86.158.164.74,"Mozilla/5.0 (Windows NT 10.0; Win64; x64) AppleWebKit/537.36 (KHTML, like Gecko) Chrome/124.0.0.0 Safari/537.36 Edg/124.0.0.0",WebKit,Edge,124.0.0.0,Windows,10.0,https://app.prolific.com/,"en-GB,en;q=0.9,en-US;q=0.8",wzewhd,"[""exposure_4s_19.mp3""]",exposure,,exp_noresponse,,,,,,
null,null,audio-keyboard-response,55,856777,0.0-16.0-39.0,11,tonic A4,2024-06-01 10:24:29,dbf4c01b3354d3453d67d51790ec2aaf,86.158.164.74,"Mozilla/5.0 (Windows NT 10.0; Win64; x64) AppleWebKit/537.36 (KHTML, like Gecko) Chrome/124.0.0.0 Safari/537.36 Edg/124.0.0.0",WebKit,Edge,124.0.0.0,Windows,10.0,https://app.prolific.com/,"en-GB,en;q=0.9,en-US;q=0.8",wzewhd,"[""exposure_4s_10.mp3""]",exposure,,exp_noresponse,,,,,,
null,null,audio-keyboard-response,56,879784,0.0-16.0-40.0,11,tonic A4,2024-06-01 10:24:29,dbf4c01b3354d3453d67d51790ec2aaf,86.158.164.74,"Mozilla/5.0 (Windows NT 10.0; Win64; x64) AppleWebKit/537.36 (KHTML, like Gecko) Chrome/124.0.0.0 Safari/537.36 Edg/124.0.0.0",WebKit,Edge,124.0.0.0,Windows,10.0,https://app.prolific.com/,"en-GB,en;q=0.9,en-US;q=0.8",wzewhd,"[""exposure_4s_18.mp3""]",exposure,,exp_noresponse,,,,,,
null,null,audio-keyboard-response,57,903079,0.0-16.0-41.0,11,tonic A4,2024-06-01 10:24:29,dbf4c01b3354d3453d67d51790ec2aaf,86.158.164.74,"Mozilla/5.0 (Windows NT 10.0; Win64; x64) AppleWebKit/537.36 (KHTML, like Gecko) Chrome/124.0.0.0 Safari/537.36 Edg/124.0.0.0",WebKit,Edge,124.0.0.0,Windows,10.0,https://app.prolific.com/,"en-GB,en;q=0.9,en-US;q=0.8",wzewhd,"[""exposure_4s_7.mp3""]",exposure,,exp_noresponse,,,,,,
null,null,audio-keyboard-response,58,926360,0.0-16.0-42.0,11,tonic A4,2024-06-01 10:24:29,dbf4c01b3354d3453d67d51790ec2aaf,86.158.164.74,"Mozilla/5.0 (Windows NT 10.0; Win64; x64) AppleWebKit/537.36 (KHTML, like Gecko) Chrome/124.0.0.0 Safari/537.36 Edg/124.0.0.0",WebKit,Edge,124.0.0.0,Windows,10.0,https://app.prolific.com/,"en-GB,en;q=0.9,en-US;q=0.8",wzewhd,"[""exposure_4s_11.mp3""]",exposure,,exp_noresponse,,,,,,
null,null,audio-keyboard-response,59,949364,0.0-16.0-43.0,11,tonic A4,2024-06-01 10:24:29,dbf4c01b3354d3453d67d51790ec2aaf,86.158.164.74,"Mozilla/5.0 (Windows NT 10.0; Win64; x64) AppleWebKit/537.36 (KHTML, like Gecko) Chrome/124.0.0.0 Safari/537.36 Edg/124.0.0.0",WebKit,Edge,124.0.0.0,Windows,10.0,https://app.prolific.com/,"en-GB,en;q=0.9,en-US;q=0.8",wzewhd,"[""exposure_4s_28.mp3""]",exposure,,exp_noresponse,,,,,,
null,null,audio-keyboard-response,60,972369,0.0-16.0-44.0,11,tonic A4,2024-06-01 10:24:29,dbf4c01b3354d3453d67d51790ec2aaf,86.158.164.74,"Mozilla/5.0 (Windows NT 10.0; Win64; x64) AppleWebKit/537.36 (KHTML, like Gecko) Chrome/124.0.0.0 Safari/537.36 Edg/124.0.0.0",WebKit,Edge,124.0.0.0,Windows,10.0,https://app.prolific.com/,"en-GB,en;q=0.9,en-US;q=0.8",wzewhd,"[""exposure_4s_20.mp3""]",exposure,,exp_noresponse,,,,,,
null,null,audio-keyboard-response,61,995373,0.0-16.0-45.0,11,tonic A4,2024-06-01 10:24:29,dbf4c01b3354d3453d67d51790ec2aaf,86.158.164.74,"Mozilla/5.0 (Windows NT 10.0; Win64; x64) AppleWebKit/537.36 (KHTML, like Gecko) Chrome/124.0.0.0 Safari/537.36 Edg/124.0.0.0",WebKit,Edge,124.0.0.0,Windows,10.0,https://app.prolific.com/,"en-GB,en;q=0.9,en-US;q=0.8",wzewhd,"[""exposure_4s_12.mp3""]",exposure,,exp_noresponse,,,,,,
null,null,audio-keyboard-response,62,1018381,0.0-16.0-46.0,11,tonic A4,2024-06-01 10:24:29,dbf4c01b3354d3453d67d51790ec2aaf,86.158.164.74,"Mozilla/5.0 (Windows NT 10.0; Win64; x64) AppleWebKit/537.36 (KHTML, like Gecko) Chrome/124.0.0.0 Safari/537.36 Edg/124.0.0.0",WebKit,Edge,124.0.0.0,Windows,10.0,https://app.prolific.com/,"en-GB,en;q=0.9,en-US;q=0.8",wzewhd,"[""exposure_4s_15.mp3""]",exposure,,exp_noresponse,,,,,,
null,null,audio-keyboard-response,63,1041656,0.0-16.0-47.0,11,tonic A4,2024-06-01 10:24:29,dbf4c01b3354d3453d67d51790ec2aaf,86.158.164.74,"Mozilla/5.0 (Windows NT 10.0; Win64; x64) AppleWebKit/537.36 (KHTML, like Gecko) Chrome/124.0.0.0 Safari/537.36 Edg/124.0.0.0",WebKit,Edge,124.0.0.0,Windows,10.0,https://app.prolific.com/,"en-GB,en;q=0.9,en-US;q=0.8",wzewhd,"[""exposure_4s_8.mp3""]",exposure,,exp_noresponse,,,,,,
null,null,audio-keyboard-response,64,1064864,0.0-16.0-48.0,11,tonic A4,2024-06-01 10:24:29,dbf4c01b3354d3453d67d51790ec2aaf,86.158.164.74,"Mozilla/5.0 (Windows NT 10.0; Win64; x64) AppleWebKit/537.36 (KHTML, like Gecko) Chrome/124.0.0.0 Safari/537.36 Edg/124.0.0.0",WebKit,Edge,124.0.0.0,Windows,10.0,https://app.prolific.com/,"en-GB,en;q=0.9,en-US;q=0.8",wzewhd,"[""exposure_4s_9.mp3""]",exposure,,exp_noresponse,,,,,,
null,null,audio-keyboard-response,65,1088066,0.0-16.0-49.0,11,tonic A4,2024-06-01 10:24:29,dbf4c01b3354d3453d67d51790ec2aaf,86.158.164.74,"Mozilla/5.0 (Windows NT 10.0; Win64; x64) AppleWebKit/537.36 (KHTML, like Gecko) Chrome/124.0.0.0 Safari/537.36 Edg/124.0.0.0",WebKit,Edge,124.0.0.0,Windows,10.0,https://app.prolific.com/,"en-GB,en;q=0.9,en-US;q=0.8",wzewhd,"[""exposure_4s_31.mp3""]",exposure,,exp_noresponse,,,,,,
null,null,audio-keyboard-response,66,1111068,0.0-16.0-50.0,11,tonic A4,2024-06-01 10:24:29,dbf4c01b3354d3453d67d51790ec2aaf,86.158.164.74,"Mozilla/5.0 (Windows NT 10.0; Win64; x64) AppleWebKit/537.36 (KHTML, like Gecko) Chrome/124.0.0.0 Safari/537.36 Edg/124.0.0.0",WebKit,Edge,124.0.0.0,Windows,10.0,https://app.prolific.com/,"en-GB,en;q=0.9,en-US;q=0.8",wzewhd,"[""exposure_4s_37.mp3""]",exposure,,exp_noresponse,,,,,,
8011,1,audio-button-response,67,1119083,0.0-16.0-51.0,11,tonic A4,2024-06-01 10:24:29,dbf4c01b3354d3453d67d51790ec2aaf,86.158.164.74,"Mozilla/5.0 (Windows NT 10.0; Win64; x64) AppleWebKit/537.36 (KHTML, like Gecko) Chrome/124.0.0.0 Safari/537.36 Edg/124.0.0.0",WebKit,Edge,124.0.0.0,Windows,10.0,https://app.prolific.com/,"en-GB,en;q=0.9,en-US;q=0.8",wzewhd,attn_length_easy_1.mp3,exposure,true,attncheck,,,,,,
4648,1,audio-button-response,68,1123735,0.0-16.0-52.0,11,tonic A4,2024-06-01 10:24:29,dbf4c01b3354d3453d67d51790ec2aaf,86.158.164.74,"Mozilla/5.0 (Windows NT 10.0; Win64; x64) AppleWebKit/537.36 (KHTML, like Gecko) Chrome/124.0.0.0 Safari/537.36 Edg/124.0.0.0",WebKit,Edge,124.0.0.0,Windows,10.0,https://app.prolific.com/,"en-GB,en;q=0.9,en-US;q=0.8",wzewhd,attn_length_hard_1.mp3,exposure,true,attncheck,,,,,,
null,null,audio-keyboard-response,69,1146744,0.0-16.0-53.0,11,tonic A4,2024-06-01 10:24:29,dbf4c01b3354d3453d67d51790ec2aaf,86.158.164.74,"Mozilla/5.0 (Windows NT 10.0; Win64; x64) AppleWebKit/537.36 (KHTML, like Gecko) Chrome/124.0.0.0 Safari/537.36 Edg/124.0.0.0",WebKit,Edge,124.0.0.0,Windows,10.0,https://app.prolific.com/,"en-GB,en;q=0.9,en-US;q=0.8",wzewhd,"[""exposure_4s_18.mp3""]",exposure,,exp_noresponse,,,,,,
null,null,audio-keyboard-response,70,1170011,0.0-16.0-54.0,11,tonic A4,2024-06-01 10:24:29,dbf4c01b3354d3453d67d51790ec2aaf,86.158.164.74,"Mozilla/5.0 (Windows NT 10.0; Win64; x64) AppleWebKit/537.36 (KHTML, like Gecko) Chrome/124.0.0.0 Safari/537.36 Edg/124.0.0.0",WebKit,Edge,124.0.0.0,Windows,10.0,https://app.prolific.com/,"en-GB,en;q=0.9,en-US;q=0.8",wzewhd,"[""exposure_4s_6.mp3""]",exposure,,exp_noresponse,,,,,,
null,null,audio-keyboard-response,71,1193027,0.0-16.0-55.0,11,tonic A4,2024-06-01 10:24:29,dbf4c01b3354d3453d67d51790ec2aaf,86.158.164.74,"Mozilla/5.0 (Windows NT 10.0; Win64; x64) AppleWebKit/537.36 (KHTML, like Gecko) Chrome/124.0.0.0 Safari/537.36 Edg/124.0.0.0",WebKit,Edge,124.0.0.0,Windows,10.0,https://app.prolific.com/,"en-GB,en;q=0.9,en-US;q=0.8",wzewhd,"[""exposure_4s_15.mp3""]",exposure,,exp_noresponse,,,,,,
null,null,audio-keyboard-response,72,1216239,0.0-16.0-56.0,11,tonic A4,2024-06-01 10:24:29,dbf4c01b3354d3453d67d51790ec2aaf,86.158.164.74,"Mozilla/5.0 (Windows NT 10.0; Win64; x64) AppleWebKit/537.36 (KHTML, like Gecko) Chrome/124.0.0.0 Safari/537.36 Edg/124.0.0.0",WebKit,Edge,124.0.0.0,Windows,10.0,https://app.prolific.com/,"en-GB,en;q=0.9,en-US;q=0.8",wzewhd,"[""exposure_4s_36.mp3""]",exposure,,exp_noresponse,,,,,,
null,null,audio-keyboard-response,73,1239243,0.0-16.0-57.0,11,tonic A4,2024-06-01 10:24:29,dbf4c01b3354d3453d67d51790ec2aaf,86.158.164.74,"Mozilla/5.0 (Windows NT 10.0; Win64; x64) AppleWebKit/537.36 (KHTML, like Gecko) Chrome/124.0.0.0 Safari/537.36 Edg/124.0.0.0",WebKit,Edge,124.0.0.0,Windows,10.0,https://app.prolific.com/,"en-GB,en;q=0.9,en-US;q=0.8",wzewhd,"[""exposure_4s_9.mp3""]",exposure,,exp_noresponse,,,,,,
null,null,audio-keyboard-response,74,1262260,0.0-16.0-58.0,11,tonic A4,2024-06-01 10:24:29,dbf4c01b3354d3453d67d51790ec2aaf,86.158.164.74,"Mozilla/5.0 (Windows NT 10.0; Win64; x64) AppleWebKit/537.36 (KHTML, like Gecko) Chrome/124.0.0.0 Safari/537.36 Edg/124.0.0.0",WebKit,Edge,124.0.0.0,Windows,10.0,https://app.prolific.com/,"en-GB,en;q=0.9,en-US;q=0.8",wzewhd,"[""exposure_4s_14.mp3""]",exposure,,exp_noresponse,,,,,,
null,null,audio-keyboard-response,75,1285264,0.0-16.0-59.0,11,tonic A4,2024-06-01 10:24:29,dbf4c01b3354d3453d67d51790ec2aaf,86.158.164.74,"Mozilla/5.0 (Windows NT 10.0; Win64; x64) AppleWebKit/537.36 (KHTML, like Gecko) Chrome/124.0.0.0 Safari/537.36 Edg/124.0.0.0",WebKit,Edge,124.0.0.0,Windows,10.0,https://app.prolific.com/,"en-GB,en;q=0.9,en-US;q=0.8",wzewhd,"[""exposure_4s_38.mp3""]",exposure,,exp_noresponse,,,,,,
3092, ,html-keyboard-response,76,1288360,0.0-17.0,11,tonic A4,2024-06-01 10:24:29,dbf4c01b3354d3453d67d51790ec2aaf,86.158.164.74,"Mozilla/5.0 (Windows NT 10.0; Win64; x64) AppleWebKit/537.36 (KHTML, like Gecko) Chrome/124.0.0.0 Safari/537.36 Edg/124.0.0.0",WebKit,Edge,124.0.0.0,Windows,10.0,https://app.prolific.com/,"en-GB,en;q=0.9,en-US;q=0.8",wzewhd,"<p>You will now be asked to judge how similar some melodies are to what you have
    just listened to. </p>
    <p><b>Press the space bar to continue.</b></p>",,,,,,,,,
2833, ,html-keyboard-response,77,1291196,0.0-18.0,11,tonic A4,2024-06-01 10:24:29,dbf4c01b3354d3453d67d51790ec2aaf,86.158.164.74,"Mozilla/5.0 (Windows NT 10.0; Win64; x64) AppleWebKit/537.36 (KHTML, like Gecko) Chrome/124.0.0.0 Safari/537.36 Edg/124.0.0.0",WebKit,Edge,124.0.0.0,Windows,10.0,https://app.prolific.com/,"en-GB,en;q=0.9,en-US;q=0.8",wzewhd,"<p>The changes in the melodies are subtle. If you are not sure, go with your gut feeling.</p>
    <p><b>Press the space bar to continue.</b></p>",,,,,,,,,
6741,3,audio-slider-response,78,1298085,0.0-19.0-0.0,11,tonic A4,2024-06-01 10:24:29,dbf4c01b3354d3453d67d51790ec2aaf,86.158.164.74,"Mozilla/5.0 (Windows NT 10.0; Win64; x64) AppleWebKit/537.36 (KHTML, like Gecko) Chrome/124.0.0.0 Safari/537.36 Edg/124.0.0.0",WebKit,Edge,124.0.0.0,Windows,10.0,https://app.prolific.com/,"en-GB,en;q=0.9,en-US;q=0.8",wzewhd,grammatical_3.mp3,grammar_learning,,,4,,,,,
7552,6,audio-slider-response,79,1305730,0.0-19.0-0.1,11,tonic A4,2024-06-01 10:24:29,dbf4c01b3354d3453d67d51790ec2aaf,86.158.164.74,"Mozilla/5.0 (Windows NT 10.0; Win64; x64) AppleWebKit/537.36 (KHTML, like Gecko) Chrome/124.0.0.0 Safari/537.36 Edg/124.0.0.0",WebKit,Edge,124.0.0.0,Windows,10.0,https://app.prolific.com/,"en-GB,en;q=0.9,en-US;q=0.8",wzewhd,grammatical_8.mp3,grammar_learning,,,4,,,,,
5491,5,audio-slider-response,80,1311314,0.0-19.0-0.2,11,tonic A4,2024-06-01 10:24:29,dbf4c01b3354d3453d67d51790ec2aaf,86.158.164.74,"Mozilla/5.0 (Windows NT 10.0; Win64; x64) AppleWebKit/537.36 (KHTML, like Gecko) Chrome/124.0.0.0 Safari/537.36 Edg/124.0.0.0",WebKit,Edge,124.0.0.0,Windows,10.0,https://app.prolific.com/,"en-GB,en;q=0.9,en-US;q=0.8",wzewhd,grammatical_5.mp3,grammar_learning,,,4,,,,,
6909,5,audio-slider-response,81,1318232,0.0-19.0-0.3,11,tonic A4,2024-06-01 10:24:29,dbf4c01b3354d3453d67d51790ec2aaf,86.158.164.74,"Mozilla/5.0 (Windows NT 10.0; Win64; x64) AppleWebKit/537.36 (KHTML, like Gecko) Chrome/124.0.0.0 Safari/537.36 Edg/124.0.0.0",WebKit,Edge,124.0.0.0,Windows,10.0,https://app.prolific.com/,"en-GB,en;q=0.9,en-US;q=0.8",wzewhd,grammatical_4.mp3,grammar_learning,,,4,,,,,
5568,3,audio-slider-response,82,1323899,0.0-19.0-0.4,11,tonic A4,2024-06-01 10:24:29,dbf4c01b3354d3453d67d51790ec2aaf,86.158.164.74,"Mozilla/5.0 (Windows NT 10.0; Win64; x64) AppleWebKit/537.36 (KHTML, like Gecko) Chrome/124.0.0.0 Safari/537.36 Edg/124.0.0.0",WebKit,Edge,124.0.0.0,Windows,10.0,https://app.prolific.com/,"en-GB,en;q=0.9,en-US;q=0.8",wzewhd,agrammatical_6.mp3,grammar_learning,,,4,,,,,
6928,2,audio-slider-response,83,1330934,0.0-19.0-0.5,11,tonic A4,2024-06-01 10:24:29,dbf4c01b3354d3453d67d51790ec2aaf,86.158.164.74,"Mozilla/5.0 (Windows NT 10.0; Win64; x64) AppleWebKit/537.36 (KHTML, like Gecko) Chrome/124.0.0.0 Safari/537.36 Edg/124.0.0.0",WebKit,Edge,124.0.0.0,Windows,10.0,https://app.prolific.com/,"en-GB,en;q=0.9,en-US;q=0.8",wzewhd,agrammatical_3.mp3,grammar_learning,,,4,,,,,
4981,5,audio-slider-response,84,1335917,0.0-19.0-0.6,11,tonic A4,2024-06-01 10:24:29,dbf4c01b3354d3453d67d51790ec2aaf,86.158.164.74,"Mozilla/5.0 (Windows NT 10.0; Win64; x64) AppleWebKit/537.36 (KHTML, like Gecko) Chrome/124.0.0.0 Safari/537.36 Edg/124.0.0.0",WebKit,Edge,124.0.0.0,Windows,10.0,https://app.prolific.com/,"en-GB,en;q=0.9,en-US;q=0.8",wzewhd,grammatical_7.mp3,grammar_learning,,,4,,,,,
5819,5,audio-slider-response,85,1341749,0.0-19.0-0.7,11,tonic A4,2024-06-01 10:24:29,dbf4c01b3354d3453d67d51790ec2aaf,86.158.164.74,"Mozilla/5.0 (Windows NT 10.0; Win64; x64) AppleWebKit/537.36 (KHTML, like Gecko) Chrome/124.0.0.0 Safari/537.36 Edg/124.0.0.0",WebKit,Edge,124.0.0.0,Windows,10.0,https://app.prolific.com/,"en-GB,en;q=0.9,en-US;q=0.8",wzewhd,grammatical_1.mp3,grammar_learning,,,4,,,,,
4800,2,audio-slider-response,86,1346651,0.0-19.0-0.8,11,tonic A4,2024-06-01 10:24:29,dbf4c01b3354d3453d67d51790ec2aaf,86.158.164.74,"Mozilla/5.0 (Windows NT 10.0; Win64; x64) AppleWebKit/537.36 (KHTML, like Gecko) Chrome/124.0.0.0 Safari/537.36 Edg/124.0.0.0",WebKit,Edge,124.0.0.0,Windows,10.0,https://app.prolific.com/,"en-GB,en;q=0.9,en-US;q=0.8",wzewhd,agrammatical_8.mp3,grammar_learning,,,4,,,,,
6029,2,audio-slider-response,87,1352784,0.0-19.0-0.9,11,tonic A4,2024-06-01 10:24:29,dbf4c01b3354d3453d67d51790ec2aaf,86.158.164.74,"Mozilla/5.0 (Windows NT 10.0; Win64; x64) AppleWebKit/537.36 (KHTML, like Gecko) Chrome/124.0.0.0 Safari/537.36 Edg/124.0.0.0",WebKit,Edge,124.0.0.0,Windows,10.0,https://app.prolific.com/,"en-GB,en;q=0.9,en-US;q=0.8",wzewhd,agrammatical_2.mp3,grammar_learning,,,4,,,,,
6208,3,audio-slider-response,88,1359133,0.0-19.0-0.10,11,tonic A4,2024-06-01 10:24:29,dbf4c01b3354d3453d67d51790ec2aaf,86.158.164.74,"Mozilla/5.0 (Windows NT 10.0; Win64; x64) AppleWebKit/537.36 (KHTML, like Gecko) Chrome/124.0.0.0 Safari/537.36 Edg/124.0.0.0",WebKit,Edge,124.0.0.0,Windows,10.0,https://app.prolific.com/,"en-GB,en;q=0.9,en-US;q=0.8",wzewhd,agrammatical_4.mp3,grammar_learning,,,4,,,,,
5240,6,audio-slider-response,89,1364833,0.0-19.0-0.11,11,tonic A4,2024-06-01 10:24:29,dbf4c01b3354d3453d67d51790ec2aaf,86.158.164.74,"Mozilla/5.0 (Windows NT 10.0; Win64; x64) AppleWebKit/537.36 (KHTML, like Gecko) Chrome/124.0.0.0 Safari/537.36 Edg/124.0.0.0",WebKit,Edge,124.0.0.0,Windows,10.0,https://app.prolific.com/,"en-GB,en;q=0.9,en-US;q=0.8",wzewhd,grammatical_2.mp3,grammar_learning,,,4,,,,,
5069,3,audio-slider-response,90,1370017,0.0-19.0-0.12,11,tonic A4,2024-06-01 10:24:29,dbf4c01b3354d3453d67d51790ec2aaf,86.158.164.74,"Mozilla/5.0 (Windows NT 10.0; Win64; x64) AppleWebKit/537.36 (KHTML, like Gecko) Chrome/124.0.0.0 Safari/537.36 Edg/124.0.0.0",WebKit,Edge,124.0.0.0,Windows,10.0,https://app.prolific.com/,"en-GB,en;q=0.9,en-US;q=0.8",wzewhd,agrammatical_5.mp3,grammar_learning,,,4,,,,,
5320,6,audio-slider-response,91,1375334,0.0-19.0-0.13,11,tonic A4,2024-06-01 10:24:29,dbf4c01b3354d3453d67d51790ec2aaf,86.158.164.74,"Mozilla/5.0 (Windows NT 10.0; Win64; x64) AppleWebKit/537.36 (KHTML, like Gecko) Chrome/124.0.0.0 Safari/537.36 Edg/124.0.0.0",WebKit,Edge,124.0.0.0,Windows,10.0,https://app.prolific.com/,"en-GB,en;q=0.9,en-US;q=0.8",wzewhd,grammatical_6.mp3,grammar_learning,,,4,,,,,
4811,2,audio-slider-response,92,1380235,0.0-19.0-0.14,11,tonic A4,2024-06-01 10:24:29,dbf4c01b3354d3453d67d51790ec2aaf,86.158.164.74,"Mozilla/5.0 (Windows NT 10.0; Win64; x64) AppleWebKit/537.36 (KHTML, like Gecko) Chrome/124.0.0.0 Safari/537.36 Edg/124.0.0.0",WebKit,Edge,124.0.0.0,Windows,10.0,https://app.prolific.com/,"en-GB,en;q=0.9,en-US;q=0.8",wzewhd,agrammatical_1.mp3,grammar_learning,,,4,,,,,
5141,2,audio-slider-response,93,1385483,0.0-19.0-0.15,11,tonic A4,2024-06-01 10:24:29,dbf4c01b3354d3453d67d51790ec2aaf,86.158.164.74,"Mozilla/5.0 (Windows NT 10.0; Win64; x64) AppleWebKit/537.36 (KHTML, like Gecko) Chrome/124.0.0.0 Safari/537.36 Edg/124.0.0.0",WebKit,Edge,124.0.0.0,Windows,10.0,https://app.prolific.com/,"en-GB,en;q=0.9,en-US;q=0.8",wzewhd,agrammatical_7.mp3,grammar_learning,,,4,,,,,
33700,"{""prolific_id"":""trying to replay the main melodies in my head at the same time""}",survey-html-form,94,1419186,0.0-20.0,11,tonic A4,2024-06-01 10:24:29,dbf4c01b3354d3453d67d51790ec2aaf,86.158.164.74,"Mozilla/5.0 (Windows NT 10.0; Win64; x64) AppleWebKit/537.36 (KHTML, like Gecko) Chrome/124.0.0.0 Safari/537.36 Edg/124.0.0.0",WebKit,Edge,124.0.0.0,Windows,10.0,https://app.prolific.com/,"en-GB,en;q=0.9,en-US;q=0.8",wzewhd,,,,,,,,,,
1810, ,html-keyboard-response,95,1420999,0.0-21.0,11,tonic A4,2024-06-01 10:24:29,dbf4c01b3354d3453d67d51790ec2aaf,86.158.164.74,"Mozilla/5.0 (Windows NT 10.0; Win64; x64) AppleWebKit/537.36 (KHTML, like Gecko) Chrome/124.0.0.0 Safari/537.36 Edg/124.0.0.0",WebKit,Edge,124.0.0.0,Windows,10.0,https://app.prolific.com/,"en-GB,en;q=0.9,en-US;q=0.8",wzewhd,"<p>In this part of the experiment, you will presented with two melodies in succession. 
    <p><b>Press the space bar to continue.</b></p>",,,,,,,,,
2749, ,html-keyboard-response,96,1423750,0.0-22.0,11,tonic A4,2024-06-01 10:24:29,dbf4c01b3354d3453d67d51790ec2aaf,86.158.164.74,"Mozilla/5.0 (Windows NT 10.0; Win64; x64) AppleWebKit/537.36 (KHTML, like Gecko) Chrome/124.0.0.0 Safari/537.36 Edg/124.0.0.0",WebKit,Edge,124.0.0.0,Windows,10.0,https://app.prolific.com/,"en-GB,en;q=0.9,en-US;q=0.8",wzewhd,"<p>The melodies are nearly identical, but have either an added accent or one different note. </p>
    <p><b>Press the space bar to continue.</b></p>",,,,,,,,,
2405, ,html-keyboard-response,97,1426157,0.0-23.0,11,tonic A4,2024-06-01 10:24:29,dbf4c01b3354d3453d67d51790ec2aaf,86.158.164.74,"Mozilla/5.0 (Windows NT 10.0; Win64; x64) AppleWebKit/537.36 (KHTML, like Gecko) Chrome/124.0.0.0 Safari/537.36 Edg/124.0.0.0",WebKit,Edge,124.0.0.0,Windows,10.0,https://app.prolific.com/,"en-GB,en;q=0.9,en-US;q=0.8",wzewhd,"<p>    Please choose the melody that <b>sounds better to you.</b></p>
    <p><b>Press the space bar to continue.</b></p>",,,,,,,,,
3365, ,html-keyboard-response,98,1429527,0.0-24.0,11,tonic A4,2024-06-01 10:24:29,dbf4c01b3354d3453d67d51790ec2aaf,86.158.164.74,"Mozilla/5.0 (Windows NT 10.0; Win64; x64) AppleWebKit/537.36 (KHTML, like Gecko) Chrome/124.0.0.0 Safari/537.36 Edg/124.0.0.0",WebKit,Edge,124.0.0.0,Windows,10.0,https://app.prolific.com/,"en-GB,en;q=0.9,en-US;q=0.8",wzewhd,There are <b>32 questions</b> in this section.,,,,,,,,,
7920,f,audio-keyboard-response,99,1438226,0.0-25.0-0.0,11,tonic A4,2024-06-01 10:24:29,dbf4c01b3354d3453d67d51790ec2aaf,86.158.164.74,"Mozilla/5.0 (Windows NT 10.0; Win64; x64) AppleWebKit/537.36 (KHTML, like Gecko) Chrome/124.0.0.0 Safari/537.36 Edg/124.0.0.0",WebKit,Edge,124.0.0.0,Windows,10.0,https://app.prolific.com/,"en-GB,en;q=0.9,en-US;q=0.8",wzewhd,fc_accents_54_2.mp3,forced_choice,,,,j,NA,false,false,
6331,f,audio-keyboard-response,100,1444667,0.0-25.0-0.1,11,tonic A4,2024-06-01 10:24:29,dbf4c01b3354d3453d67d51790ec2aaf,86.158.164.74,"Mozilla/5.0 (Windows NT 10.0; Win64; x64) AppleWebKit/537.36 (KHTML, like Gecko) Chrome/124.0.0.0 Safari/537.36 Edg/124.0.0.0",WebKit,Edge,124.0.0.0,Windows,10.0,https://app.prolific.com/,"en-GB,en;q=0.9,en-US;q=0.8",wzewhd,fc_accents_32_4.mp3,forced_choice,,,,j,NA,false,false,
7760,j,audio-keyboard-response,101,1452548,0.0-25.0-0.2,11,tonic A4,2024-06-01 10:24:29,dbf4c01b3354d3453d67d51790ec2aaf,86.158.164.74,"Mozilla/5.0 (Windows NT 10.0; Win64; x64) AppleWebKit/537.36 (KHTML, like Gecko) Chrome/124.0.0.0 Safari/537.36 Edg/124.0.0.0",WebKit,Edge,124.0.0.0,Windows,10.0,https://app.prolific.com/,"en-GB,en;q=0.9,en-US;q=0.8",wzewhd,fc_IC_accent_5_2.mp3,forced_choice,,,,NA,j,false,true,
6261,f,audio-keyboard-response,102,1458931,0.0-25.0-0.3,11,tonic A4,2024-06-01 10:24:29,dbf4c01b3354d3453d67d51790ec2aaf,86.158.164.74,"Mozilla/5.0 (Windows NT 10.0; Win64; x64) AppleWebKit/537.36 (KHTML, like Gecko) Chrome/124.0.0.0 Safari/537.36 Edg/124.0.0.0",WebKit,Edge,124.0.0.0,Windows,10.0,https://app.prolific.com/,"en-GB,en;q=0.9,en-US;q=0.8",wzewhd,fc_accents_54_1.mp3,forced_choice,,,,j,NA,false,false,
6069,j,audio-keyboard-response,103,1465116,0.0-25.0-0.4,11,tonic A4,2024-06-01 10:24:29,dbf4c01b3354d3453d67d51790ec2aaf,86.158.164.74,"Mozilla/5.0 (Windows NT 10.0; Win64; x64) AppleWebKit/537.36 (KHTML, like Gecko) Chrome/124.0.0.0 Safari/537.36 Edg/124.0.0.0",WebKit,Edge,124.0.0.0,Windows,10.0,https://app.prolific.com/,"en-GB,en;q=0.9,en-US;q=0.8",wzewhd,fc_IC_accent_3_2.mp3,forced_choice,,,,NA,f,false,false,
6160,j,audio-keyboard-response,104,1471384,0.0-25.0-0.5,11,tonic A4,2024-06-01 10:24:29,dbf4c01b3354d3453d67d51790ec2aaf,86.158.164.74,"Mozilla/5.0 (Windows NT 10.0; Win64; x64) AppleWebKit/537.36 (KHTML, like Gecko) Chrome/124.0.0.0 Safari/537.36 Edg/124.0.0.0",WebKit,Edge,124.0.0.0,Windows,10.0,https://app.prolific.com/,"en-GB,en;q=0.9,en-US;q=0.8",wzewhd,fc_IC_accent_5_3.mp3,forced_choice,,,,NA,j,false,true,
6229,j,audio-keyboard-response,105,1477727,0.0-25.0-0.6,11,tonic A4,2024-06-01 10:24:29,dbf4c01b3354d3453d67d51790ec2aaf,86.158.164.74,"Mozilla/5.0 (Windows NT 10.0; Win64; x64) AppleWebKit/537.36 (KHTML, like Gecko) Chrome/124.0.0.0 Safari/537.36 Edg/124.0.0.0",WebKit,Edge,124.0.0.0,Windows,10.0,https://app.prolific.com/,"en-GB,en;q=0.9,en-US;q=0.8",wzewhd,fc_accents_56_1.mp3,forced_choice,,,,j,NA,true,false,
6160,j,audio-keyboard-response,106,1484001,0.0-25.0-0.7,11,tonic A4,2024-06-01 10:24:29,dbf4c01b3354d3453d67d51790ec2aaf,86.158.164.74,"Mozilla/5.0 (Windows NT 10.0; Win64; x64) AppleWebKit/537.36 (KHTML, like Gecko) Chrome/124.0.0.0 Safari/537.36 Edg/124.0.0.0",WebKit,Edge,124.0.0.0,Windows,10.0,https://app.prolific.com/,"en-GB,en;q=0.9,en-US;q=0.8",wzewhd,fc_IC_accent_3_1.mp3,forced_choice,,,,NA,f,false,false,
6101,j,audio-keyboard-response,107,1490214,0.0-25.0-0.8,11,tonic A4,2024-06-01 10:24:29,dbf4c01b3354d3453d67d51790ec2aaf,86.158.164.74,"Mozilla/5.0 (Windows NT 10.0; Win64; x64) AppleWebKit/537.36 (KHTML, like Gecko) Chrome/124.0.0.0 Safari/537.36 Edg/124.0.0.0",WebKit,Edge,124.0.0.0,Windows,10.0,https://app.prolific.com/,"en-GB,en;q=0.9,en-US;q=0.8",wzewhd,fc_accents_56_2.mp3,forced_choice,,,,j,NA,true,false,
6381,j,audio-keyboard-response,108,1496778,0.0-25.0-0.9,11,tonic A4,2024-06-01 10:24:29,dbf4c01b3354d3453d67d51790ec2aaf,86.158.164.74,"Mozilla/5.0 (Windows NT 10.0; Win64; x64) AppleWebKit/537.36 (KHTML, like Gecko) Chrome/124.0.0.0 Safari/537.36 Edg/124.0.0.0",WebKit,Edge,124.0.0.0,Windows,10.0,https://app.prolific.com/,"en-GB,en;q=0.9,en-US;q=0.8",wzewhd,fc_accents_34_2.mp3,forced_choice,,,,j,NA,true,false,
5731,j,audio-keyboard-response,109,1502612,0.0-25.0-0.10,11,tonic A4,2024-06-01 10:24:29,dbf4c01b3354d3453d67d51790ec2aaf,86.158.164.74,"Mozilla/5.0 (Windows NT 10.0; Win64; x64) AppleWebKit/537.36 (KHTML, like Gecko) Chrome/124.0.0.0 Safari/537.36 Edg/124.0.0.0",WebKit,Edge,124.0.0.0,Windows,10.0,https://app.prolific.com/,"en-GB,en;q=0.9,en-US;q=0.8",wzewhd,fc_accents_56_3.mp3,forced_choice,,,,j,NA,true,false,
7011,f,audio-keyboard-response,110,1509619,0.0-25.0-0.11,11,tonic A4,2024-06-01 10:24:29,dbf4c01b3354d3453d67d51790ec2aaf,86.158.164.74,"Mozilla/5.0 (Windows NT 10.0; Win64; x64) AppleWebKit/537.36 (KHTML, like Gecko) Chrome/124.0.0.0 Safari/537.36 Edg/124.0.0.0",WebKit,Edge,124.0.0.0,Windows,10.0,https://app.prolific.com/,"en-GB,en;q=0.9,en-US;q=0.8",wzewhd,fc_accents_54_4.mp3,forced_choice,,,,j,NA,false,false,
6429,j,audio-keyboard-response,111,1516163,0.0-25.0-0.12,11,tonic A4,2024-06-01 10:24:29,dbf4c01b3354d3453d67d51790ec2aaf,86.158.164.74,"Mozilla/5.0 (Windows NT 10.0; Win64; x64) AppleWebKit/537.36 (KHTML, like Gecko) Chrome/124.0.0.0 Safari/537.36 Edg/124.0.0.0",WebKit,Edge,124.0.0.0,Windows,10.0,https://app.prolific.com/,"en-GB,en;q=0.9,en-US;q=0.8",wzewhd,fc_IC_default_5_1.mp3,forced_choice,,,,NA,j,false,true,
6011,j,audio-keyboard-response,112,1522178,0.0-25.0-0.13,11,tonic A4,2024-06-01 10:24:29,dbf4c01b3354d3453d67d51790ec2aaf,86.158.164.74,"Mozilla/5.0 (Windows NT 10.0; Win64; x64) AppleWebKit/537.36 (KHTML, like Gecko) Chrome/124.0.0.0 Safari/537.36 Edg/124.0.0.0",WebKit,Edge,124.0.0.0,Windows,10.0,https://app.prolific.com/,"en-GB,en;q=0.9,en-US;q=0.8",wzewhd,fc_accents_56_4.mp3,forced_choice,,,,j,NA,true,false,
5651,j,audio-keyboard-response,113,1527941,0.0-25.0-0.14,11,tonic A4,2024-06-01 10:24:29,dbf4c01b3354d3453d67d51790ec2aaf,86.158.164.74,"Mozilla/5.0 (Windows NT 10.0; Win64; x64) AppleWebKit/537.36 (KHTML, like Gecko) Chrome/124.0.0.0 Safari/537.36 Edg/124.0.0.0",WebKit,Edge,124.0.0.0,Windows,10.0,https://app.prolific.com/,"en-GB,en;q=0.9,en-US;q=0.8",wzewhd,fc_IC_accent_3_3.mp3,forced_choice,,,,NA,f,false,false,
5501,f,audio-keyboard-response,114,1533540,0.0-25.0-0.15,11,tonic A4,2024-06-01 10:24:29,dbf4c01b3354d3453d67d51790ec2aaf,86.158.164.74,"Mozilla/5.0 (Windows NT 10.0; Win64; x64) AppleWebKit/537.36 (KHTML, like Gecko) Chrome/124.0.0.0 Safari/537.36 Edg/124.0.0.0",WebKit,Edge,124.0.0.0,Windows,10.0,https://app.prolific.com/,"en-GB,en;q=0.9,en-US;q=0.8",wzewhd,fc_IC_accent_5_1.mp3,forced_choice,,,,NA,j,false,false,
7701,j,audio-keyboard-response,115,1541340,0.0-25.0-0.16,11,tonic A4,2024-06-01 10:24:29,dbf4c01b3354d3453d67d51790ec2aaf,86.158.164.74,"Mozilla/5.0 (Windows NT 10.0; Win64; x64) AppleWebKit/537.36 (KHTML, like Gecko) Chrome/124.0.0.0 Safari/537.36 Edg/124.0.0.0",WebKit,Edge,124.0.0.0,Windows,10.0,https://app.prolific.com/,"en-GB,en;q=0.9,en-US;q=0.8",wzewhd,fc_IC_default_3_1.mp3,forced_choice,,,,NA,f,false,false,
6280,j,audio-keyboard-response,116,1547736,0.0-25.0-0.17,11,tonic A4,2024-06-01 10:24:29,dbf4c01b3354d3453d67d51790ec2aaf,86.158.164.74,"Mozilla/5.0 (Windows NT 10.0; Win64; x64) AppleWebKit/537.36 (KHTML, like Gecko) Chrome/124.0.0.0 Safari/537.36 Edg/124.0.0.0",WebKit,Edge,124.0.0.0,Windows,10.0,https://app.prolific.com/,"en-GB,en;q=0.9,en-US;q=0.8",wzewhd,fc_IC_accent_3_4.mp3,forced_choice,,,,NA,f,false,false,
6200,j,audio-keyboard-response,117,1554043,0.0-25.0-0.18,11,tonic A4,2024-06-01 10:24:29,dbf4c01b3354d3453d67d51790ec2aaf,86.158.164.74,"Mozilla/5.0 (Windows NT 10.0; Win64; x64) AppleWebKit/537.36 (KHTML, like Gecko) Chrome/124.0.0.0 Safari/537.36 Edg/124.0.0.0",WebKit,Edge,124.0.0.0,Windows,10.0,https://app.prolific.com/,"en-GB,en;q=0.9,en-US;q=0.8",wzewhd,fc_IC_default_5_3.mp3,forced_choice,,,,NA,j,false,true,
6371,j,audio-keyboard-response,118,1560567,0.0-25.0-0.19,11,tonic A4,2024-06-01 10:24:29,dbf4c01b3354d3453d67d51790ec2aaf,86.158.164.74,"Mozilla/5.0 (Windows NT 10.0; Win64; x64) AppleWebKit/537.36 (KHTML, like Gecko) Chrome/124.0.0.0 Safari/537.36 Edg/124.0.0.0",WebKit,Edge,124.0.0.0,Windows,10.0,https://app.prolific.com/,"en-GB,en;q=0.9,en-US;q=0.8",wzewhd,fc_IC_default_5_4.mp3,forced_choice,,,,NA,j,false,true,
6411,f,audio-keyboard-response,119,1567083,0.0-25.0-0.20,11,tonic A4,2024-06-01 10:24:29,dbf4c01b3354d3453d67d51790ec2aaf,86.158.164.74,"Mozilla/5.0 (Windows NT 10.0; Win64; x64) AppleWebKit/537.36 (KHTML, like Gecko) Chrome/124.0.0.0 Safari/537.36 Edg/124.0.0.0",WebKit,Edge,124.0.0.0,Windows,10.0,https://app.prolific.com/,"en-GB,en;q=0.9,en-US;q=0.8",wzewhd,fc_accents_54_3.mp3,forced_choice,,,,j,NA,false,false,
6021,f,audio-keyboard-response,120,1573098,0.0-25.0-0.21,11,tonic A4,2024-06-01 10:24:29,dbf4c01b3354d3453d67d51790ec2aaf,86.158.164.74,"Mozilla/5.0 (Windows NT 10.0; Win64; x64) AppleWebKit/537.36 (KHTML, like Gecko) Chrome/124.0.0.0 Safari/537.36 Edg/124.0.0.0",WebKit,Edge,124.0.0.0,Windows,10.0,https://app.prolific.com/,"en-GB,en;q=0.9,en-US;q=0.8",wzewhd,fc_accents_32_1.mp3,forced_choice,,,,j,NA,false,false,
5661,f,audio-keyboard-response,121,1578866,0.0-25.0-0.22,11,tonic A4,2024-06-01 10:24:29,dbf4c01b3354d3453d67d51790ec2aaf,86.158.164.74,"Mozilla/5.0 (Windows NT 10.0; Win64; x64) AppleWebKit/537.36 (KHTML, like Gecko) Chrome/124.0.0.0 Safari/537.36 Edg/124.0.0.0",WebKit,Edge,124.0.0.0,Windows,10.0,https://app.prolific.com/,"en-GB,en;q=0.9,en-US;q=0.8",wzewhd,fc_accents_32_2.mp3,forced_choice,,,,j,NA,false,false,
6189,f,audio-keyboard-response,122,1585157,0.0-25.0-0.23,11,tonic A4,2024-06-01 10:24:29,dbf4c01b3354d3453d67d51790ec2aaf,86.158.164.74,"Mozilla/5.0 (Windows NT 10.0; Win64; x64) AppleWebKit/537.36 (KHTML, like Gecko) Chrome/124.0.0.0 Safari/537.36 Edg/124.0.0.0",WebKit,Edge,124.0.0.0,Windows,10.0,https://app.prolific.com/,"en-GB,en;q=0.9,en-US;q=0.8",wzewhd,fc_accents_34_4.mp3,forced_choice,,,,j,NA,false,false,
5509,j,audio-keyboard-response,123,1590769,0.0-25.0-0.24,11,tonic A4,2024-06-01 10:24:29,dbf4c01b3354d3453d67d51790ec2aaf,86.158.164.74,"Mozilla/5.0 (Windows NT 10.0; Win64; x64) AppleWebKit/537.36 (KHTML, like Gecko) Chrome/124.0.0.0 Safari/537.36 Edg/124.0.0.0",WebKit,Edge,124.0.0.0,Windows,10.0,https://app.prolific.com/,"en-GB,en;q=0.9,en-US;q=0.8",wzewhd,fc_IC_default_3_3.mp3,forced_choice,,,,NA,f,false,false,
6011,j,audio-keyboard-response,124,1596878,0.0-25.0-0.25,11,tonic A4,2024-06-01 10:24:29,dbf4c01b3354d3453d67d51790ec2aaf,86.158.164.74,"Mozilla/5.0 (Windows NT 10.0; Win64; x64) AppleWebKit/537.36 (KHTML, like Gecko) Chrome/124.0.0.0 Safari/537.36 Edg/124.0.0.0",WebKit,Edge,124.0.0.0,Windows,10.0,https://app.prolific.com/,"en-GB,en;q=0.9,en-US;q=0.8",wzewhd,fc_IC_default_5_2.mp3,forced_choice,,,,NA,j,false,true,
6072,j,audio-keyboard-response,125,1603065,0.0-25.0-0.26,11,tonic A4,2024-06-01 10:24:29,dbf4c01b3354d3453d67d51790ec2aaf,86.158.164.74,"Mozilla/5.0 (Windows NT 10.0; Win64; x64) AppleWebKit/537.36 (KHTML, like Gecko) Chrome/124.0.0.0 Safari/537.36 Edg/124.0.0.0",WebKit,Edge,124.0.0.0,Windows,10.0,https://app.prolific.com/,"en-GB,en;q=0.9,en-US;q=0.8",wzewhd,fc_IC_default_3_4.mp3,forced_choice,,,,NA,f,false,false,
6109,j,audio-keyboard-response,126,1609286,0.0-25.0-0.27,11,tonic A4,2024-06-01 10:24:29,dbf4c01b3354d3453d67d51790ec2aaf,86.158.164.74,"Mozilla/5.0 (Windows NT 10.0; Win64; x64) AppleWebKit/537.36 (KHTML, like Gecko) Chrome/124.0.0.0 Safari/537.36 Edg/124.0.0.0",WebKit,Edge,124.0.0.0,Windows,10.0,https://app.prolific.com/,"en-GB,en;q=0.9,en-US;q=0.8",wzewhd,fc_IC_accent_5_4.mp3,forced_choice,,,,NA,j,false,true,
6421,j,audio-keyboard-response,127,1615823,0.0-25.0-0.28,11,tonic A4,2024-06-01 10:24:29,dbf4c01b3354d3453d67d51790ec2aaf,86.158.164.74,"Mozilla/5.0 (Windows NT 10.0; Win64; x64) AppleWebKit/537.36 (KHTML, like Gecko) Chrome/124.0.0.0 Safari/537.36 Edg/124.0.0.0",WebKit,Edge,124.0.0.0,Windows,10.0,https://app.prolific.com/,"en-GB,en;q=0.9,en-US;q=0.8",wzewhd,fc_IC_default_3_2.mp3,forced_choice,,,,NA,f,false,false,
5848,f,audio-keyboard-response,128,1621914,0.0-25.0-0.29,11,tonic A4,2024-06-01 10:24:29,dbf4c01b3354d3453d67d51790ec2aaf,86.158.164.74,"Mozilla/5.0 (Windows NT 10.0; Win64; x64) AppleWebKit/537.36 (KHTML, like Gecko) Chrome/124.0.0.0 Safari/537.36 Edg/124.0.0.0",WebKit,Edge,124.0.0.0,Windows,10.0,https://app.prolific.com/,"en-GB,en;q=0.9,en-US;q=0.8",wzewhd,fc_accents_34_1.mp3,forced_choice,,,,j,NA,false,false,
5419,j,audio-keyboard-response,129,1627432,0.0-25.0-0.30,11,tonic A4,2024-06-01 10:24:29,dbf4c01b3354d3453d67d51790ec2aaf,86.158.164.74,"Mozilla/5.0 (Windows NT 10.0; Win64; x64) AppleWebKit/537.36 (KHTML, like Gecko) Chrome/124.0.0.0 Safari/537.36 Edg/124.0.0.0",WebKit,Edge,124.0.0.0,Windows,10.0,https://app.prolific.com/,"en-GB,en;q=0.9,en-US;q=0.8",wzewhd,fc_accents_34_3.mp3,forced_choice,,,,j,NA,true,false,
6109,f,audio-keyboard-response,130,1633656,0.0-25.0-0.31,11,tonic A4,2024-06-01 10:24:29,dbf4c01b3354d3453d67d51790ec2aaf,86.158.164.74,"Mozilla/5.0 (Windows NT 10.0; Win64; x64) AppleWebKit/537.36 (KHTML, like Gecko) Chrome/124.0.0.0 Safari/537.36 Edg/124.0.0.0",WebKit,Edge,124.0.0.0,Windows,10.0,https://app.prolific.com/,"en-GB,en;q=0.9,en-US;q=0.8",wzewhd,fc_accents_32_3.mp3,forced_choice,,,,j,NA,false,false,
3276, ,html-keyboard-response,131,1636935,0.0-26.0,11,tonic A4,2024-06-01 10:24:29,dbf4c01b3354d3453d67d51790ec2aaf,86.158.164.74,"Mozilla/5.0 (Windows NT 10.0; Win64; x64) AppleWebKit/537.36 (KHTML, like Gecko) Chrome/124.0.0.0 Safari/537.36 Edg/124.0.0.0",WebKit,Edge,124.0.0.0,Windows,10.0,https://app.prolific.com/,"en-GB,en;q=0.9,en-US;q=0.8",wzewhd,"<p>You have completed all the listening in this experiment. The remaining questions about your background
          will help us better understand your responses. You can skip any question that you do not wish to answer. </p>
          <p> <b> Press the space bar to continue. </b></p>",,,,,,,,,
3673,"{""HeadphoneUse"":""No, I used computer speakers""}",survey-multi-choice,132,1640618,0.0-27.0,11,tonic A4,2024-06-01 10:24:29,dbf4c01b3354d3453d67d51790ec2aaf,86.158.164.74,"Mozilla/5.0 (Windows NT 10.0; Win64; x64) AppleWebKit/537.36 (KHTML, like Gecko) Chrome/124.0.0.0 Safari/537.36 Edg/124.0.0.0",WebKit,Edge,124.0.0.0,Windows,10.0,https://app.prolific.com/,"en-GB,en;q=0.9,en-US;q=0.8",wzewhd,,survey,,,,,,,,[0]
10171,"{""age"":""1993"",""country"":""England"",""language"":""English""}",survey-html-form,133,1650803,0.0-28.0,11,tonic A4,2024-06-01 10:24:29,dbf4c01b3354d3453d67d51790ec2aaf,86.158.164.74,"Mozilla/5.0 (Windows NT 10.0; Win64; x64) AppleWebKit/537.36 (KHTML, like Gecko) Chrome/124.0.0.0 Safari/537.36 Edg/124.0.0.0",WebKit,Edge,124.0.0.0,Windows,10.0,https://app.prolific.com/,"en-GB,en;q=0.9,en-US;q=0.8",wzewhd,,survey,,,,,,,,
2575,"{""Gender"":""Female""}",survey-multi-choice,134,1653383,0.0-29.0,11,tonic A4,2024-06-01 10:24:29,dbf4c01b3354d3453d67d51790ec2aaf,86.158.164.74,"Mozilla/5.0 (Windows NT 10.0; Win64; x64) AppleWebKit/537.36 (KHTML, like Gecko) Chrome/124.0.0.0 Safari/537.36 Edg/124.0.0.0",WebKit,Edge,124.0.0.0,Windows,10.0,https://app.prolific.com/,"en-GB,en;q=0.9,en-US;q=0.8",wzewhd,,survey,,,,,,,,[0]
14414,"{""Colors"":[""Pop"",""Hip-hop"",""Country""]}",survey-multi-select,135,1667805,0.0-30.0,11,tonic A4,2024-06-01 10:24:29,dbf4c01b3354d3453d67d51790ec2aaf,86.158.164.74,"Mozilla/5.0 (Windows NT 10.0; Win64; x64) AppleWebKit/537.36 (KHTML, like Gecko) Chrome/124.0.0.0 Safari/537.36 Edg/124.0.0.0",WebKit,Edge,124.0.0.0,Windows,10.0,https://app.prolific.com/,"en-GB,en;q=0.9,en-US;q=0.8",wzewhd,,,,,,,,,,[0]
7582,"{""HearingImpairment"":""No"",""PerfectPitch"":""I'm not sure"",""Singing"":""Yes""}",survey-multi-choice,136,1675396,0.0-31.0,11,tonic A4,2024-06-01 10:24:29,dbf4c01b3354d3453d67d51790ec2aaf,86.158.164.74,"Mozilla/5.0 (Windows NT 10.0; Win64; x64) AppleWebKit/537.36 (KHTML, like Gecko) Chrome/124.0.0.0 Safari/537.36 Edg/124.0.0.0",WebKit,Edge,124.0.0.0,Windows,10.0,https://app.prolific.com/,"en-GB,en;q=0.9,en-US;q=0.8",wzewhd,,survey,,,,,,,,"[0,1,2]"
18851,"{""PracticeHours"":""Under 30 minutes"",""TrainingYears"":""7-10 years"",""TrainingType"":""I took lessons with a private teacher"",""Expertise"":""Intermediate"",""NonWesternTraining"":""No""}",survey-multi-choice,137,1694257,0.0-32.0,11,tonic A4,2024-06-01 10:24:29,dbf4c01b3354d3453d67d51790ec2aaf,86.158.164.74,"Mozilla/5.0 (Windows NT 10.0; Win64; x64) AppleWebKit/537.36 (KHTML, like Gecko) Chrome/124.0.0.0 Safari/537.36 Edg/124.0.0.0",WebKit,Edge,124.0.0.0,Windows,10.0,https://app.prolific.com/,"en-GB,en;q=0.9,en-US;q=0.8",wzewhd,,survey,,,,,,,,"[0,1,2,3,4]"
5776,"{""TrainingStart"":""7-10""}",survey-multi-choice,138,1700040,0.0-33.0,11,tonic A4,2024-06-01 10:24:29,dbf4c01b3354d3453d67d51790ec2aaf,86.158.164.74,"Mozilla/5.0 (Windows NT 10.0; Win64; x64) AppleWebKit/537.36 (KHTML, like Gecko) Chrome/124.0.0.0 Safari/537.36 Edg/124.0.0.0",WebKit,Edge,124.0.0.0,Windows,10.0,https://app.prolific.com/,"en-GB,en;q=0.9,en-US;q=0.8",wzewhd,,survey,,,,,,,,[0]
6577,0,html-button-response,139,1706626,0.0-34.0,11,tonic A4,2024-06-01 10:24:29,dbf4c01b3354d3453d67d51790ec2aaf,86.158.164.74,"Mozilla/5.0 (Windows NT 10.0; Win64; x64) AppleWebKit/537.36 (KHTML, like Gecko) Chrome/124.0.0.0 Safari/537.36 Edg/124.0.0.0",WebKit,Edge,124.0.0.0,Windows,10.0,https://app.prolific.com/,"en-GB,en;q=0.9,en-US;q=0.8",wzewhd,"You have reached the end of the experiment. Your completion code is <b>C1AWH3EX</b>.
    <p>For questions or concerns, please write to <b>haiqin.zhang@ens.psl.eu.</b></p>
    Thank you for your participation!
  ",,,,,,,,,
39523,"{""prolific_id"":""6145135f01ab17bf41e67820""}",survey-html-form,0,39533,0.0-0.0,10,tonic A4,2024-06-01 10:20:55,dbf4c01b3354d3453d67d51790ec2aaf,82.132.236.72,Mozilla/5.0 (Windows NT 10.0; Win64; x64; rv:126.0) Gecko/20100101 Firefox/126.0,,Firefox,126.0,Windows,10.0,https://app.prolific.com/,"en-GB,en;q=0.5",azv8u4,,,,,,,,,,
7521, ,html-keyboard-response,1,47058,0.0-1.0,10,tonic A4,2024-06-01 10:20:55,dbf4c01b3354d3453d67d51790ec2aaf,82.132.236.72,Mozilla/5.0 (Windows NT 10.0; Win64; x64; rv:126.0) Gecko/20100101 Firefox/126.0,,Firefox,126.0,Windows,10.0,https://app.prolific.com/,"en-GB,en;q=0.5",azv8u4,"
    <p>Please complete the experiment in a quiet place.
      We highly recommend using headphones.</p>

    </p align = 'justify'> <b>Press the space bar to proceed.</b> </p>",,,,,,,,,
1744, ,html-keyboard-response,2,48802,0.0-2.0,10,tonic A4,2024-06-01 10:20:55,dbf4c01b3354d3453d67d51790ec2aaf,82.132.236.72,Mozilla/5.0 (Windows NT 10.0; Win64; x64; rv:126.0) Gecko/20100101 Firefox/126.0,,Firefox,126.0,Windows,10.0,https://app.prolific.com/,"en-GB,en;q=0.5",azv8u4,"
    <p>A series of soundchecks will now be played to help you adjust the volume
      to a comfortable level. </p>

    </p align = 'justify'> <b>Press the space bar to proceed.</b> </p>",,,,,,,,,
6821,0,audio-button-response,3,56615,0.0-3.0-0.0,10,tonic A4,2024-06-01 10:20:55,dbf4c01b3354d3453d67d51790ec2aaf,82.132.236.72,Mozilla/5.0 (Windows NT 10.0; Win64; x64; rv:126.0) Gecko/20100101 Firefox/126.0,,Firefox,126.0,Windows,10.0,https://app.prolific.com/,"en-GB,en;q=0.5",azv8u4,grammatical_1.mp3,,,,,,,,,
5149,1,audio-button-response,4,61761,0.0-3.1-0.1,10,tonic A4,2024-06-01 10:20:55,dbf4c01b3354d3453d67d51790ec2aaf,82.132.236.72,Mozilla/5.0 (Windows NT 10.0; Win64; x64; rv:126.0) Gecko/20100101 Firefox/126.0,,Firefox,126.0,Windows,10.0,https://app.prolific.com/,"en-GB,en;q=0.5",azv8u4,grammatical_1.mp3,,,,,,,,,
5633, ,html-keyboard-response,5,67396,0.0-4.0,10,tonic A4,2024-06-01 10:20:55,dbf4c01b3354d3453d67d51790ec2aaf,82.132.236.72,Mozilla/5.0 (Windows NT 10.0; Win64; x64; rv:126.0) Gecko/20100101 Firefox/126.0,,Firefox,126.0,Windows,10.0,https://app.prolific.com/,"en-GB,en;q=0.5",azv8u4,"<p width = 300 px>
    You will now hear two melodies in succession. 
    The notes in each melody are the same, but there is an accent on one note for one of the melodies. 
    <b>Listen for which melody has the accent.</b>
    </p>
    
    Press the space bar to continue.",,,,,,,,,
1785, ,html-keyboard-response,6,69183,0.0-5.0,10,tonic A4,2024-06-01 10:20:55,dbf4c01b3354d3453d67d51790ec2aaf,82.132.236.72,Mozilla/5.0 (Windows NT 10.0; Win64; x64; rv:126.0) Gecko/20100101 Firefox/126.0,,Firefox,126.0,Windows,10.0,https://app.prolific.com/,"en-GB,en;q=0.5",azv8u4,"<p width = 300 px>
    <b>You must score at least 2/3 to proceed with the experiment.</b>
    </p>
    
    Press the space bar to continue.",,,,,,,,,
12421,0,audio-button-response,7,81825,0.0-6.0,10,tonic A4,2024-06-01 10:20:55,dbf4c01b3354d3453d67d51790ec2aaf,82.132.236.72,Mozilla/5.0 (Windows NT 10.0; Win64; x64; rv:126.0) Gecko/20100101 Firefox/126.0,,Firefox,126.0,Windows,10.0,https://app.prolific.com/,"en-GB,en;q=0.5",azv8u4,fc_accents_32_1.mp3,soundcheck,false,,,,,,,
958, ,html-keyboard-response,8,82789,0.0-7.0,10,tonic A4,2024-06-01 10:20:55,dbf4c01b3354d3453d67d51790ec2aaf,82.132.236.72,Mozilla/5.0 (Windows NT 10.0; Win64; x64; rv:126.0) Gecko/20100101 Firefox/126.0,,Firefox,126.0,Windows,10.0,https://app.prolific.com/,"en-GB,en;q=0.5",azv8u4,<p>Incorrect.</p> Press the space bar to continue.,,,,,,,,,
6691,1,audio-button-response,9,89657,0.0-8.0,10,tonic A4,2024-06-01 10:20:55,dbf4c01b3354d3453d67d51790ec2aaf,82.132.236.72,Mozilla/5.0 (Windows NT 10.0; Win64; x64; rv:126.0) Gecko/20100101 Firefox/126.0,,Firefox,126.0,Windows,10.0,https://app.prolific.com/,"en-GB,en;q=0.5",azv8u4,fc_accents_56_4.mp3,soundcheck,true,,,,,,,
902, ,html-keyboard-response,10,90562,0.0-9.0,10,tonic A4,2024-06-01 10:20:55,dbf4c01b3354d3453d67d51790ec2aaf,82.132.236.72,Mozilla/5.0 (Windows NT 10.0; Win64; x64; rv:126.0) Gecko/20100101 Firefox/126.0,,Firefox,126.0,Windows,10.0,https://app.prolific.com/,"en-GB,en;q=0.5",azv8u4,<p>Correct!</p> Press the space bar to continue.,,,,,,,,,
6688,1,audio-button-response,11,97715,0.0-10.0,10,tonic A4,2024-06-01 10:20:55,dbf4c01b3354d3453d67d51790ec2aaf,82.132.236.72,Mozilla/5.0 (Windows NT 10.0; Win64; x64; rv:126.0) Gecko/20100101 Firefox/126.0,,Firefox,126.0,Windows,10.0,https://app.prolific.com/,"en-GB,en;q=0.5",azv8u4,fc_accents_54_4.mp3,soundcheck,true,,,,,,,
842, ,html-keyboard-response,12,98558,0.0-11.0,10,tonic A4,2024-06-01 10:20:55,dbf4c01b3354d3453d67d51790ec2aaf,82.132.236.72,Mozilla/5.0 (Windows NT 10.0; Win64; x64; rv:126.0) Gecko/20100101 Firefox/126.0,,Firefox,126.0,Windows,10.0,https://app.prolific.com/,"en-GB,en;q=0.5",azv8u4,<p>Correct!</p> Press the space bar to continue.,,,,,,,,,
13987, ,html-keyboard-response,13,112547,0.0-12.0,10,tonic A4,2024-06-01 10:20:55,dbf4c01b3354d3453d67d51790ec2aaf,82.132.236.72,Mozilla/5.0 (Windows NT 10.0; Win64; x64; rv:126.0) Gecko/20100101 Firefox/126.0,,Firefox,126.0,Windows,10.0,https://app.prolific.com/,"en-GB,en;q=0.5",azv8u4,"If you got <b>less than 2/3</b> of the previous soundcheck questions correct, <b>we unfortunately cannot use your data or pay you</b>. Please exit the experiment now.
    
    <p>If you got <b>more than 2/3</b> correct, press the space bar to continue</p>.",,,,,,,,,
6069, ,html-keyboard-response,14,118617,0.0-13.0,10,tonic A4,2024-06-01 10:20:55,dbf4c01b3354d3453d67d51790ec2aaf,82.132.236.72,Mozilla/5.0 (Windows NT 10.0; Win64; x64; rv:126.0) Gecko/20100101 Firefox/126.0,,Firefox,126.0,Windows,10.0,https://app.prolific.com/,"en-GB,en;q=0.5",azv8u4,"<p>Please listen carefully to the following set of melodies. 
      You will occassionally be asked some basic questions about some of the melodies to check your attention level. </p>
    <p><b>Press the space bar to continue.</b></p>",,,,,,,,,
2498, ,html-keyboard-response,15,121116,0.0-14.0,10,tonic A4,2024-06-01 10:20:55,dbf4c01b3354d3453d67d51790ec2aaf,82.132.236.72,Mozilla/5.0 (Windows NT 10.0; Win64; x64; rv:126.0) Gecko/20100101 Firefox/126.0,,Firefox,126.0,Windows,10.0,https://app.prolific.com/,"en-GB,en;q=0.5",azv8u4,"<p>The attention questions vary in difficulty, but you must get at least some questions correct for us to pay you.</p>
    <p><b>Press the space bar to continue.</b></p>",,,,,,,,,
1253, ,html-keyboard-response,16,122370,0.0-15.0,10,tonic A4,2024-06-01 10:20:55,dbf4c01b3354d3453d67d51790ec2aaf,82.132.236.72,Mozilla/5.0 (Windows NT 10.0; Win64; x64; rv:126.0) Gecko/20100101 Firefox/126.0,,Firefox,126.0,Windows,10.0,https://app.prolific.com/,"en-GB,en;q=0.5",azv8u4,"
    This part of the experiment should take <b>15-20 minutes</b>. 
    <p><b>Press the space bar to begin.</b></p>",,,,,,,,,
null,null,audio-keyboard-response,17,145765,0.0-16.0-0.0,10,tonic A4,2024-06-01 10:20:55,dbf4c01b3354d3453d67d51790ec2aaf,82.132.236.72,Mozilla/5.0 (Windows NT 10.0; Win64; x64; rv:126.0) Gecko/20100101 Firefox/126.0,,Firefox,126.0,Windows,10.0,https://app.prolific.com/,"en-GB,en;q=0.5",azv8u4,"[""exposure_4s_34.mp3""]",exposure,,exp_noresponse,,,,,,
null,null,audio-keyboard-response,18,170726,0.0-16.0-1.0,10,tonic A4,2024-06-01 10:20:55,dbf4c01b3354d3453d67d51790ec2aaf,82.132.236.72,Mozilla/5.0 (Windows NT 10.0; Win64; x64; rv:126.0) Gecko/20100101 Firefox/126.0,,Firefox,126.0,Windows,10.0,https://app.prolific.com/,"en-GB,en;q=0.5",azv8u4,"[""exposure_4s_2.mp3""]",exposure,,exp_noresponse,,,,,,
null,null,audio-keyboard-response,19,194295,0.0-16.0-2.0,10,tonic A4,2024-06-01 10:20:55,dbf4c01b3354d3453d67d51790ec2aaf,82.132.236.72,Mozilla/5.0 (Windows NT 10.0; Win64; x64; rv:126.0) Gecko/20100101 Firefox/126.0,,Firefox,126.0,Windows,10.0,https://app.prolific.com/,"en-GB,en;q=0.5",azv8u4,"[""exposure_4s_27.mp3""]",exposure,,exp_noresponse,,,,,,
null,null,audio-keyboard-response,20,217786,0.0-16.0-3.0,10,tonic A4,2024-06-01 10:20:55,dbf4c01b3354d3453d67d51790ec2aaf,82.132.236.72,Mozilla/5.0 (Windows NT 10.0; Win64; x64; rv:126.0) Gecko/20100101 Firefox/126.0,,Firefox,126.0,Windows,10.0,https://app.prolific.com/,"en-GB,en;q=0.5",azv8u4,"[""exposure_4s_33.mp3""]",exposure,,exp_noresponse,,,,,,
null,null,audio-keyboard-response,21,241296,0.0-16.0-4.0,10,tonic A4,2024-06-01 10:20:55,dbf4c01b3354d3453d67d51790ec2aaf,82.132.236.72,Mozilla/5.0 (Windows NT 10.0; Win64; x64; rv:126.0) Gecko/20100101 Firefox/126.0,,Firefox,126.0,Windows,10.0,https://app.prolific.com/,"en-GB,en;q=0.5",azv8u4,"[""exposure_4s_16.mp3""]",exposure,,exp_noresponse,,,,,,
null,null,audio-keyboard-response,22,264805,0.0-16.0-5.0,10,tonic A4,2024-06-01 10:20:55,dbf4c01b3354d3453d67d51790ec2aaf,82.132.236.72,Mozilla/5.0 (Windows NT 10.0; Win64; x64; rv:126.0) Gecko/20100101 Firefox/126.0,,Firefox,126.0,Windows,10.0,https://app.prolific.com/,"en-GB,en;q=0.5",azv8u4,"[""exposure_4s_12.mp3""]",exposure,,exp_noresponse,,,,,,
null,null,audio-keyboard-response,23,288576,0.0-16.0-6.0,10,tonic A4,2024-06-01 10:20:55,dbf4c01b3354d3453d67d51790ec2aaf,82.132.236.72,Mozilla/5.0 (Windows NT 10.0; Win64; x64; rv:126.0) Gecko/20100101 Firefox/126.0,,Firefox,126.0,Windows,10.0,https://app.prolific.com/,"en-GB,en;q=0.5",azv8u4,"[""exposure_4s_35.mp3""]",exposure,,exp_noresponse,,,,,,
null,null,audio-keyboard-response,24,312316,0.0-16.0-7.0,10,tonic A4,2024-06-01 10:20:55,dbf4c01b3354d3453d67d51790ec2aaf,82.132.236.72,Mozilla/5.0 (Windows NT 10.0; Win64; x64; rv:126.0) Gecko/20100101 Firefox/126.0,,Firefox,126.0,Windows,10.0,https://app.prolific.com/,"en-GB,en;q=0.5",azv8u4,"[""exposure_4s_44.mp3""]",exposure,,exp_noresponse,,,,,,
null,null,audio-keyboard-response,25,335796,0.0-16.0-8.0,10,tonic A4,2024-06-01 10:20:55,dbf4c01b3354d3453d67d51790ec2aaf,82.132.236.72,Mozilla/5.0 (Windows NT 10.0; Win64; x64; rv:126.0) Gecko/20100101 Firefox/126.0,,Firefox,126.0,Windows,10.0,https://app.prolific.com/,"en-GB,en;q=0.5",azv8u4,"[""exposure_4s_28.mp3""]",exposure,,exp_noresponse,,,,,,
null,null,audio-keyboard-response,26,359165,0.0-16.0-9.0,10,tonic A4,2024-06-01 10:20:55,dbf4c01b3354d3453d67d51790ec2aaf,82.132.236.72,Mozilla/5.0 (Windows NT 10.0; Win64; x64; rv:126.0) Gecko/20100101 Firefox/126.0,,Firefox,126.0,Windows,10.0,https://app.prolific.com/,"en-GB,en;q=0.5",azv8u4,"[""exposure_4s_3.mp3""]",exposure,,exp_noresponse,,,,,,
null,null,audio-keyboard-response,27,382725,0.0-16.0-10.0,10,tonic A4,2024-06-01 10:20:55,dbf4c01b3354d3453d67d51790ec2aaf,82.132.236.72,Mozilla/5.0 (Windows NT 10.0; Win64; x64; rv:126.0) Gecko/20100101 Firefox/126.0,,Firefox,126.0,Windows,10.0,https://app.prolific.com/,"en-GB,en;q=0.5",azv8u4,"[""exposure_4s_31.mp3""]",exposure,,exp_noresponse,,,,,,
null,null,audio-keyboard-response,28,407566,0.0-16.0-11.0,10,tonic A4,2024-06-01 10:20:55,dbf4c01b3354d3453d67d51790ec2aaf,82.132.236.72,Mozilla/5.0 (Windows NT 10.0; Win64; x64; rv:126.0) Gecko/20100101 Firefox/126.0,,Firefox,126.0,Windows,10.0,https://app.prolific.com/,"en-GB,en;q=0.5",azv8u4,"[""exposure_4s_36.mp3""]",exposure,,exp_noresponse,,,,,,
null,null,audio-keyboard-response,29,432189,0.0-16.0-12.0,10,tonic A4,2024-06-01 10:20:55,dbf4c01b3354d3453d67d51790ec2aaf,82.132.236.72,Mozilla/5.0 (Windows NT 10.0; Win64; x64; rv:126.0) Gecko/20100101 Firefox/126.0,,Firefox,126.0,Windows,10.0,https://app.prolific.com/,"en-GB,en;q=0.5",azv8u4,"[""exposure_4s_6.mp3""]",exposure,,exp_noresponse,,,,,,
null,null,audio-keyboard-response,30,455593,0.0-16.0-13.0,10,tonic A4,2024-06-01 10:20:55,dbf4c01b3354d3453d67d51790ec2aaf,82.132.236.72,Mozilla/5.0 (Windows NT 10.0; Win64; x64; rv:126.0) Gecko/20100101 Firefox/126.0,,Firefox,126.0,Windows,10.0,https://app.prolific.com/,"en-GB,en;q=0.5",azv8u4,"[""exposure_4s_10.mp3""]",exposure,,exp_noresponse,,,,,,
null,null,audio-keyboard-response,31,479996,0.0-16.0-14.0,10,tonic A4,2024-06-01 10:20:55,dbf4c01b3354d3453d67d51790ec2aaf,82.132.236.72,Mozilla/5.0 (Windows NT 10.0; Win64; x64; rv:126.0) Gecko/20100101 Firefox/126.0,,Firefox,126.0,Windows,10.0,https://app.prolific.com/,"en-GB,en;q=0.5",azv8u4,"[""exposure_4s_15.mp3""]",exposure,,exp_noresponse,,,,,,
null,null,audio-keyboard-response,32,503515,0.0-16.0-15.0,10,tonic A4,2024-06-01 10:20:55,dbf4c01b3354d3453d67d51790ec2aaf,82.132.236.72,Mozilla/5.0 (Windows NT 10.0; Win64; x64; rv:126.0) Gecko/20100101 Firefox/126.0,,Firefox,126.0,Windows,10.0,https://app.prolific.com/,"en-GB,en;q=0.5",azv8u4,"[""exposure_4s_29.mp3""]",exposure,,exp_noresponse,,,,,,
21019,0,audio-button-response,33,524792,0.0-16.0-16.0,10,tonic A4,2024-06-01 10:20:55,dbf4c01b3354d3453d67d51790ec2aaf,82.132.236.72,Mozilla/5.0 (Windows NT 10.0; Win64; x64; rv:126.0) Gecko/20100101 Firefox/126.0,,Firefox,126.0,Windows,10.0,https://app.prolific.com/,"en-GB,en;q=0.5",azv8u4,attn_length_hard_1.mp3,exposure,false,attncheck,,,,,,
null,null,audio-keyboard-response,34,548286,0.0-16.0-17.0,10,tonic A4,2024-06-01 10:20:55,dbf4c01b3354d3453d67d51790ec2aaf,82.132.236.72,Mozilla/5.0 (Windows NT 10.0; Win64; x64; rv:126.0) Gecko/20100101 Firefox/126.0,,Firefox,126.0,Windows,10.0,https://app.prolific.com/,"en-GB,en;q=0.5",azv8u4,"[""exposure_4s_19.mp3""]",exposure,,exp_noresponse,,,,,,
null,null,audio-keyboard-response,35,571295,0.0-16.0-18.0,10,tonic A4,2024-06-01 10:20:55,dbf4c01b3354d3453d67d51790ec2aaf,82.132.236.72,Mozilla/5.0 (Windows NT 10.0; Win64; x64; rv:126.0) Gecko/20100101 Firefox/126.0,,Firefox,126.0,Windows,10.0,https://app.prolific.com/,"en-GB,en;q=0.5",azv8u4,"[""exposure_4s_34.mp3""]",exposure,,exp_noresponse,,,,,,
11392,1,audio-button-response,36,582905,0.0-16.0-19.0,10,tonic A4,2024-06-01 10:20:55,dbf4c01b3354d3453d67d51790ec2aaf,82.132.236.72,Mozilla/5.0 (Windows NT 10.0; Win64; x64; rv:126.0) Gecko/20100101 Firefox/126.0,,Firefox,126.0,Windows,10.0,https://app.prolific.com/,"en-GB,en;q=0.5",azv8u4,attn_length_easy_1.mp3,exposure,true,attncheck,,,,,,
null,null,audio-keyboard-response,37,605926,0.0-16.0-20.0,10,tonic A4,2024-06-01 10:20:55,dbf4c01b3354d3453d67d51790ec2aaf,82.132.236.72,Mozilla/5.0 (Windows NT 10.0; Win64; x64; rv:126.0) Gecko/20100101 Firefox/126.0,,Firefox,126.0,Windows,10.0,https://app.prolific.com/,"en-GB,en;q=0.5",azv8u4,"[""exposure_4s_33.mp3""]",exposure,,exp_noresponse,,,,,,
null,null,audio-keyboard-response,38,628935,0.0-16.0-21.0,10,tonic A4,2024-06-01 10:20:55,dbf4c01b3354d3453d67d51790ec2aaf,82.132.236.72,Mozilla/5.0 (Windows NT 10.0; Win64; x64; rv:126.0) Gecko/20100101 Firefox/126.0,,Firefox,126.0,Windows,10.0,https://app.prolific.com/,"en-GB,en;q=0.5",azv8u4,"[""exposure_4s_34.mp3""]",exposure,,exp_noresponse,,,,,,
null,null,audio-keyboard-response,39,652755,0.0-16.0-22.0,10,tonic A4,2024-06-01 10:20:55,dbf4c01b3354d3453d67d51790ec2aaf,82.132.236.72,Mozilla/5.0 (Windows NT 10.0; Win64; x64; rv:126.0) Gecko/20100101 Firefox/126.0,,Firefox,126.0,Windows,10.0,https://app.prolific.com/,"en-GB,en;q=0.5",azv8u4,"[""exposure_4s_42.mp3""]",exposure,,exp_noresponse,,,,,,
null,null,audio-keyboard-response,40,675770,0.0-16.0-23.0,10,tonic A4,2024-06-01 10:20:55,dbf4c01b3354d3453d67d51790ec2aaf,82.132.236.72,Mozilla/5.0 (Windows NT 10.0; Win64; x64; rv:126.0) Gecko/20100101 Firefox/126.0,,Firefox,126.0,Windows,10.0,https://app.prolific.com/,"en-GB,en;q=0.5",azv8u4,"[""exposure_4s_16.mp3""]",exposure,,exp_noresponse,,,,,,
null,null,audio-keyboard-response,41,698775,0.0-16.0-24.0,10,tonic A4,2024-06-01 10:20:55,dbf4c01b3354d3453d67d51790ec2aaf,82.132.236.72,Mozilla/5.0 (Windows NT 10.0; Win64; x64; rv:126.0) Gecko/20100101 Firefox/126.0,,Firefox,126.0,Windows,10.0,https://app.prolific.com/,"en-GB,en;q=0.5",azv8u4,"[""exposure_4s_3.mp3""]",exposure,,exp_noresponse,,,,,,
null,null,audio-keyboard-response,42,722385,0.0-16.0-25.0,10,tonic A4,2024-06-01 10:20:55,dbf4c01b3354d3453d67d51790ec2aaf,82.132.236.72,Mozilla/5.0 (Windows NT 10.0; Win64; x64; rv:126.0) Gecko/20100101 Firefox/126.0,,Firefox,126.0,Windows,10.0,https://app.prolific.com/,"en-GB,en;q=0.5",azv8u4,"[""exposure_4s_24.mp3""]",exposure,,exp_noresponse,,,,,,
null,null,audio-keyboard-response,43,745395,0.0-16.0-26.0,10,tonic A4,2024-06-01 10:20:55,dbf4c01b3354d3453d67d51790ec2aaf,82.132.236.72,Mozilla/5.0 (Windows NT 10.0; Win64; x64; rv:126.0) Gecko/20100101 Firefox/126.0,,Firefox,126.0,Windows,10.0,https://app.prolific.com/,"en-GB,en;q=0.5",azv8u4,"[""exposure_4s_19.mp3""]",exposure,,exp_noresponse,,,,,,
null,null,audio-keyboard-response,44,768415,0.0-16.0-27.0,10,tonic A4,2024-06-01 10:20:55,dbf4c01b3354d3453d67d51790ec2aaf,82.132.236.72,Mozilla/5.0 (Windows NT 10.0; Win64; x64; rv:126.0) Gecko/20100101 Firefox/126.0,,Firefox,126.0,Windows,10.0,https://app.prolific.com/,"en-GB,en;q=0.5",azv8u4,"[""exposure_4s_29.mp3""]",exposure,,exp_noresponse,,,,,,
null,null,audio-keyboard-response,45,791785,0.0-16.0-28.0,10,tonic A4,2024-06-01 10:20:55,dbf4c01b3354d3453d67d51790ec2aaf,82.132.236.72,Mozilla/5.0 (Windows NT 10.0; Win64; x64; rv:126.0) Gecko/20100101 Firefox/126.0,,Firefox,126.0,Windows,10.0,https://app.prolific.com/,"en-GB,en;q=0.5",azv8u4,"[""exposure_4s_17.mp3""]",exposure,,exp_noresponse,,,,,,
9560,1,audio-button-response,46,801337,0.0-16.0-29.0,10,tonic A4,2024-06-01 10:20:55,dbf4c01b3354d3453d67d51790ec2aaf,82.132.236.72,Mozilla/5.0 (Windows NT 10.0; Win64; x64; rv:126.0) Gecko/20100101 Firefox/126.0,,Firefox,126.0,Windows,10.0,https://app.prolific.com/,"en-GB,en;q=0.5",azv8u4,attn_length_easy_1.mp3,exposure,true,attncheck,,,,,,
9539,3,audio-slider-response,47,810882,0.0-16.0-30.0,10,tonic A4,2024-06-01 10:20:55,dbf4c01b3354d3453d67d51790ec2aaf,82.132.236.72,Mozilla/5.0 (Windows NT 10.0; Win64; x64; rv:126.0) Gecko/20100101 Firefox/126.0,,Firefox,126.0,Windows,10.0,https://app.prolific.com/,"en-GB,en;q=0.5",azv8u4,"[""grammatical_1.mp3""]",exposure,,exp_liking,4,,,,,
null,null,audio-keyboard-response,48,833894,0.0-16.0-31.0,10,tonic A4,2024-06-01 10:20:55,dbf4c01b3354d3453d67d51790ec2aaf,82.132.236.72,Mozilla/5.0 (Windows NT 10.0; Win64; x64; rv:126.0) Gecko/20100101 Firefox/126.0,,Firefox,126.0,Windows,10.0,https://app.prolific.com/,"en-GB,en;q=0.5",azv8u4,"[""exposure_4s_12.mp3""]",exposure,,exp_noresponse,,,,,,
null,null,audio-keyboard-response,49,857324,0.0-16.0-32.0,10,tonic A4,2024-06-01 10:20:55,dbf4c01b3354d3453d67d51790ec2aaf,82.132.236.72,Mozilla/5.0 (Windows NT 10.0; Win64; x64; rv:126.0) Gecko/20100101 Firefox/126.0,,Firefox,126.0,Windows,10.0,https://app.prolific.com/,"en-GB,en;q=0.5",azv8u4,"[""exposure_4s_21.mp3""]",exposure,,exp_noresponse,,,,,,
null,null,audio-keyboard-response,50,880725,0.0-16.0-33.0,10,tonic A4,2024-06-01 10:20:55,dbf4c01b3354d3453d67d51790ec2aaf,82.132.236.72,Mozilla/5.0 (Windows NT 10.0; Win64; x64; rv:126.0) Gecko/20100101 Firefox/126.0,,Firefox,126.0,Windows,10.0,https://app.prolific.com/,"en-GB,en;q=0.5",azv8u4,"[""exposure_4s_45.mp3""]",exposure,,exp_noresponse,,,,,,
null,null,audio-keyboard-response,51,903735,0.0-16.0-34.0,10,tonic A4,2024-06-01 10:20:55,dbf4c01b3354d3453d67d51790ec2aaf,82.132.236.72,Mozilla/5.0 (Windows NT 10.0; Win64; x64; rv:126.0) Gecko/20100101 Firefox/126.0,,Firefox,126.0,Windows,10.0,https://app.prolific.com/,"en-GB,en;q=0.5",azv8u4,"[""exposure_4s_24.mp3""]",exposure,,exp_noresponse,,,,,,
null,null,audio-keyboard-response,52,926755,0.0-16.0-35.0,10,tonic A4,2024-06-01 10:20:55,dbf4c01b3354d3453d67d51790ec2aaf,82.132.236.72,Mozilla/5.0 (Windows NT 10.0; Win64; x64; rv:126.0) Gecko/20100101 Firefox/126.0,,Firefox,126.0,Windows,10.0,https://app.prolific.com/,"en-GB,en;q=0.5",azv8u4,"[""exposure_4s_27.mp3""]",exposure,,exp_noresponse,,,,,,
null,null,audio-keyboard-response,53,949763,0.0-16.0-36.0,10,tonic A4,2024-06-01 10:20:55,dbf4c01b3354d3453d67d51790ec2aaf,82.132.236.72,Mozilla/5.0 (Windows NT 10.0; Win64; x64; rv:126.0) Gecko/20100101 Firefox/126.0,,Firefox,126.0,Windows,10.0,https://app.prolific.com/,"en-GB,en;q=0.5",azv8u4,"[""exposure_4s_16.mp3""]",exposure,,exp_noresponse,,,,,,
null,null,audio-keyboard-response,54,973237,0.0-16.0-37.0,10,tonic A4,2024-06-01 10:20:55,dbf4c01b3354d3453d67d51790ec2aaf,82.132.236.72,Mozilla/5.0 (Windows NT 10.0; Win64; x64; rv:126.0) Gecko/20100101 Firefox/126.0,,Firefox,126.0,Windows,10.0,https://app.prolific.com/,"en-GB,en;q=0.5",azv8u4,"[""exposure_4s_18.mp3""]",exposure,,exp_noresponse,,,,,,
null,null,audio-keyboard-response,55,996244,0.0-16.0-38.0,10,tonic A4,2024-06-01 10:20:55,dbf4c01b3354d3453d67d51790ec2aaf,82.132.236.72,Mozilla/5.0 (Windows NT 10.0; Win64; x64; rv:126.0) Gecko/20100101 Firefox/126.0,,Firefox,126.0,Windows,10.0,https://app.prolific.com/,"en-GB,en;q=0.5",azv8u4,"[""exposure_4s_36.mp3""]",exposure,,exp_noresponse,,,,,,
null,null,audio-keyboard-response,56,1019705,0.0-16.0-39.0,10,tonic A4,2024-06-01 10:20:55,dbf4c01b3354d3453d67d51790ec2aaf,82.132.236.72,Mozilla/5.0 (Windows NT 10.0; Win64; x64; rv:126.0) Gecko/20100101 Firefox/126.0,,Firefox,126.0,Windows,10.0,https://app.prolific.com/,"en-GB,en;q=0.5",azv8u4,"[""exposure_4s_41.mp3""]",exposure,,exp_noresponse,,,,,,
null,null,audio-keyboard-response,57,1043225,0.0-16.0-40.0,10,tonic A4,2024-06-01 10:20:55,dbf4c01b3354d3453d67d51790ec2aaf,82.132.236.72,Mozilla/5.0 (Windows NT 10.0; Win64; x64; rv:126.0) Gecko/20100101 Firefox/126.0,,Firefox,126.0,Windows,10.0,https://app.prolific.com/,"en-GB,en;q=0.5",azv8u4,"[""exposure_4s_9.mp3""]",exposure,,exp_noresponse,,,,,,
null,null,audio-keyboard-response,58,1066243,0.0-16.0-41.0,10,tonic A4,2024-06-01 10:20:55,dbf4c01b3354d3453d67d51790ec2aaf,82.132.236.72,Mozilla/5.0 (Windows NT 10.0; Win64; x64; rv:126.0) Gecko/20100101 Firefox/126.0,,Firefox,126.0,Windows,10.0,https://app.prolific.com/,"en-GB,en;q=0.5",azv8u4,"[""exposure_4s_17.mp3""]",exposure,,exp_noresponse,,,,,,
null,null,audio-keyboard-response,59,1089254,0.0-16.0-42.0,10,tonic A4,2024-06-01 10:20:55,dbf4c01b3354d3453d67d51790ec2aaf,82.132.236.72,Mozilla/5.0 (Windows NT 10.0; Win64; x64; rv:126.0) Gecko/20100101 Firefox/126.0,,Firefox,126.0,Windows,10.0,https://app.prolific.com/,"en-GB,en;q=0.5",azv8u4,"[""exposure_4s_35.mp3""]",exposure,,exp_noresponse,,,,,,
null,null,audio-keyboard-response,60,1112644,0.0-16.0-43.0,10,tonic A4,2024-06-01 10:20:55,dbf4c01b3354d3453d67d51790ec2aaf,82.132.236.72,Mozilla/5.0 (Windows NT 10.0; Win64; x64; rv:126.0) Gecko/20100101 Firefox/126.0,,Firefox,126.0,Windows,10.0,https://app.prolific.com/,"en-GB,en;q=0.5",azv8u4,"[""exposure_4s_39.mp3""]",exposure,,exp_noresponse,,,,,,
7629,1,audio-button-response,61,1120266,0.0-16.0-44.0,10,tonic A4,2024-06-01 10:20:55,dbf4c01b3354d3453d67d51790ec2aaf,82.132.236.72,Mozilla/5.0 (Windows NT 10.0; Win64; x64; rv:126.0) Gecko/20100101 Firefox/126.0,,Firefox,126.0,Windows,10.0,https://app.prolific.com/,"en-GB,en;q=0.5",azv8u4,attn_length_easy_1.mp3,exposure,true,attncheck,,,,,,
null,null,audio-keyboard-response,62,1143285,0.0-16.0-45.0,10,tonic A4,2024-06-01 10:20:55,dbf4c01b3354d3453d67d51790ec2aaf,82.132.236.72,Mozilla/5.0 (Windows NT 10.0; Win64; x64; rv:126.0) Gecko/20100101 Firefox/126.0,,Firefox,126.0,Windows,10.0,https://app.prolific.com/,"en-GB,en;q=0.5",azv8u4,"[""exposure_4s_3.mp3""]",exposure,,exp_noresponse,,,,,,
null,null,audio-keyboard-response,63,1166288,0.0-16.0-46.0,10,tonic A4,2024-06-01 10:20:55,dbf4c01b3354d3453d67d51790ec2aaf,82.132.236.72,Mozilla/5.0 (Windows NT 10.0; Win64; x64; rv:126.0) Gecko/20100101 Firefox/126.0,,Firefox,126.0,Windows,10.0,https://app.prolific.com/,"en-GB,en;q=0.5",azv8u4,"[""exposure_4s_16.mp3""]",exposure,,exp_noresponse,,,,,,
7619,1,audio-button-response,64,1173909,0.0-16.0-47.0,10,tonic A4,2024-06-01 10:20:55,dbf4c01b3354d3453d67d51790ec2aaf,82.132.236.72,Mozilla/5.0 (Windows NT 10.0; Win64; x64; rv:126.0) Gecko/20100101 Firefox/126.0,,Firefox,126.0,Windows,10.0,https://app.prolific.com/,"en-GB,en;q=0.5",azv8u4,attn_length_easy_1.mp3,exposure,true,attncheck,,,,,,
null,null,audio-keyboard-response,65,1197335,0.0-16.0-48.0,10,tonic A4,2024-06-01 10:20:55,dbf4c01b3354d3453d67d51790ec2aaf,82.132.236.72,Mozilla/5.0 (Windows NT 10.0; Win64; x64; rv:126.0) Gecko/20100101 Firefox/126.0,,Firefox,126.0,Windows,10.0,https://app.prolific.com/,"en-GB,en;q=0.5",azv8u4,"[""exposure_4s_37.mp3""]",exposure,,exp_noresponse,,,,,,
null,null,audio-keyboard-response,66,1220996,0.0-16.0-49.0,10,tonic A4,2024-06-01 10:20:55,dbf4c01b3354d3453d67d51790ec2aaf,82.132.236.72,Mozilla/5.0 (Windows NT 10.0; Win64; x64; rv:126.0) Gecko/20100101 Firefox/126.0,,Firefox,126.0,Windows,10.0,https://app.prolific.com/,"en-GB,en;q=0.5",azv8u4,"[""exposure_4s_11.mp3""]",exposure,,exp_noresponse,,,,,,
null,null,audio-keyboard-response,67,1244014,0.0-16.0-50.0,10,tonic A4,2024-06-01 10:20:55,dbf4c01b3354d3453d67d51790ec2aaf,82.132.236.72,Mozilla/5.0 (Windows NT 10.0; Win64; x64; rv:126.0) Gecko/20100101 Firefox/126.0,,Firefox,126.0,Windows,10.0,https://app.prolific.com/,"en-GB,en;q=0.5",azv8u4,"[""exposure_4s_3.mp3""]",exposure,,exp_noresponse,,,,,,
null,null,audio-keyboard-response,68,1267025,0.0-16.0-51.0,10,tonic A4,2024-06-01 10:20:55,dbf4c01b3354d3453d67d51790ec2aaf,82.132.236.72,Mozilla/5.0 (Windows NT 10.0; Win64; x64; rv:126.0) Gecko/20100101 Firefox/126.0,,Firefox,126.0,Windows,10.0,https://app.prolific.com/,"en-GB,en;q=0.5",azv8u4,"[""exposure_4s_10.mp3""]",exposure,,exp_noresponse,,,,,,
12459,0,audio-button-response,69,1279482,0.0-16.0-52.0,10,tonic A4,2024-06-01 10:20:55,dbf4c01b3354d3453d67d51790ec2aaf,82.132.236.72,Mozilla/5.0 (Windows NT 10.0; Win64; x64; rv:126.0) Gecko/20100101 Firefox/126.0,,Firefox,126.0,Windows,10.0,https://app.prolific.com/,"en-GB,en;q=0.5",azv8u4,attn_length_hard_1.mp3,exposure,false,attncheck,,,,,,
null,null,audio-keyboard-response,70,1302495,0.0-16.0-53.0,10,tonic A4,2024-06-01 10:20:55,dbf4c01b3354d3453d67d51790ec2aaf,82.132.236.72,Mozilla/5.0 (Windows NT 10.0; Win64; x64; rv:126.0) Gecko/20100101 Firefox/126.0,,Firefox,126.0,Windows,10.0,https://app.prolific.com/,"en-GB,en;q=0.5",azv8u4,"[""exposure_4s_17.mp3""]",exposure,,exp_noresponse,,,,,,
null,null,audio-keyboard-response,71,1326007,0.0-16.0-54.0,10,tonic A4,2024-06-01 10:20:55,dbf4c01b3354d3453d67d51790ec2aaf,82.132.236.72,Mozilla/5.0 (Windows NT 10.0; Win64; x64; rv:126.0) Gecko/20100101 Firefox/126.0,,Firefox,126.0,Windows,10.0,https://app.prolific.com/,"en-GB,en;q=0.5",azv8u4,"[""exposure_4s_14.mp3""]",exposure,,exp_noresponse,,,,,,
null,null,audio-keyboard-response,72,1349011,0.0-16.0-55.0,10,tonic A4,2024-06-01 10:20:55,dbf4c01b3354d3453d67d51790ec2aaf,82.132.236.72,Mozilla/5.0 (Windows NT 10.0; Win64; x64; rv:126.0) Gecko/20100101 Firefox/126.0,,Firefox,126.0,Windows,10.0,https://app.prolific.com/,"en-GB,en;q=0.5",azv8u4,"[""exposure_4s_2.mp3""]",exposure,,exp_noresponse,,,,,,
null,null,audio-keyboard-response,73,1373741,0.0-16.0-56.0,10,tonic A4,2024-06-01 10:20:55,dbf4c01b3354d3453d67d51790ec2aaf,82.132.236.72,Mozilla/5.0 (Windows NT 10.0; Win64; x64; rv:126.0) Gecko/20100101 Firefox/126.0,,Firefox,126.0,Windows,10.0,https://app.prolific.com/,"en-GB,en;q=0.5",azv8u4,"[""exposure_4s_20.mp3""]",exposure,,exp_noresponse,,,,,,
8120,1,audio-slider-response,74,1382093,0.0-16.0-57.0,10,tonic A4,2024-06-01 10:20:55,dbf4c01b3354d3453d67d51790ec2aaf,82.132.236.72,Mozilla/5.0 (Windows NT 10.0; Win64; x64; rv:126.0) Gecko/20100101 Firefox/126.0,,Firefox,126.0,Windows,10.0,https://app.prolific.com/,"en-GB,en;q=0.5",azv8u4,"[""grammatical_3.mp3""]",exposure,,exp_liking,4,,,,,
null,null,audio-keyboard-response,75,1406124,0.0-16.0-58.0,10,tonic A4,2024-06-01 10:20:55,dbf4c01b3354d3453d67d51790ec2aaf,82.132.236.72,Mozilla/5.0 (Windows NT 10.0; Win64; x64; rv:126.0) Gecko/20100101 Firefox/126.0,,Firefox,126.0,Windows,10.0,https://app.prolific.com/,"en-GB,en;q=0.5",azv8u4,"[""exposure_4s_25.mp3""]",exposure,,exp_noresponse,,,,,,
null,null,audio-keyboard-response,76,1429144,0.0-16.0-59.0,10,tonic A4,2024-06-01 10:20:55,dbf4c01b3354d3453d67d51790ec2aaf,82.132.236.72,Mozilla/5.0 (Windows NT 10.0; Win64; x64; rv:126.0) Gecko/20100101 Firefox/126.0,,Firefox,126.0,Windows,10.0,https://app.prolific.com/,"en-GB,en;q=0.5",azv8u4,"[""exposure_4s_44.mp3""]",exposure,,exp_noresponse,,,,,,
3597, ,html-keyboard-response,77,1432744,0.0-17.0,10,tonic A4,2024-06-01 10:20:55,dbf4c01b3354d3453d67d51790ec2aaf,82.132.236.72,Mozilla/5.0 (Windows NT 10.0; Win64; x64; rv:126.0) Gecko/20100101 Firefox/126.0,,Firefox,126.0,Windows,10.0,https://app.prolific.com/,"en-GB,en;q=0.5",azv8u4,"<p>You will now be asked to judge how similar some melodies are to what you have
    just listened to. </p>
    <p><b>Press the space bar to continue.</b></p>",,,,,,,,,
1923, ,html-keyboard-response,78,1434670,0.0-18.0,10,tonic A4,2024-06-01 10:20:55,dbf4c01b3354d3453d67d51790ec2aaf,82.132.236.72,Mozilla/5.0 (Windows NT 10.0; Win64; x64; rv:126.0) Gecko/20100101 Firefox/126.0,,Firefox,126.0,Windows,10.0,https://app.prolific.com/,"en-GB,en;q=0.5",azv8u4,"<p>The changes in the melodies are subtle. If you are not sure, go with your gut feeling.</p>
    <p><b>Press the space bar to continue.</b></p>",,,,,,,,,
8600,5,audio-slider-response,79,1443848,0.0-19.0-0.0,10,tonic A4,2024-06-01 10:20:55,dbf4c01b3354d3453d67d51790ec2aaf,82.132.236.72,Mozilla/5.0 (Windows NT 10.0; Win64; x64; rv:126.0) Gecko/20100101 Firefox/126.0,,Firefox,126.0,Windows,10.0,https://app.prolific.com/,"en-GB,en;q=0.5",azv8u4,agrammatical_7.mp3,grammar_learning,,,4,,,,,
8440,6,audio-slider-response,80,1452467,0.0-19.0-0.1,10,tonic A4,2024-06-01 10:20:55,dbf4c01b3354d3453d67d51790ec2aaf,82.132.236.72,Mozilla/5.0 (Windows NT 10.0; Win64; x64; rv:126.0) Gecko/20100101 Firefox/126.0,,Firefox,126.0,Windows,10.0,https://app.prolific.com/,"en-GB,en;q=0.5",azv8u4,grammatical_8.mp3,grammar_learning,,,4,,,,,
7760,5,audio-slider-response,81,1460390,0.0-19.0-0.2,10,tonic A4,2024-06-01 10:20:55,dbf4c01b3354d3453d67d51790ec2aaf,82.132.236.72,Mozilla/5.0 (Windows NT 10.0; Win64; x64; rv:126.0) Gecko/20100101 Firefox/126.0,,Firefox,126.0,Windows,10.0,https://app.prolific.com/,"en-GB,en;q=0.5",azv8u4,agrammatical_1.mp3,grammar_learning,,,4,,,,,
8440,7,audio-slider-response,82,1469025,0.0-19.0-0.3,10,tonic A4,2024-06-01 10:20:55,dbf4c01b3354d3453d67d51790ec2aaf,82.132.236.72,Mozilla/5.0 (Windows NT 10.0; Win64; x64; rv:126.0) Gecko/20100101 Firefox/126.0,,Firefox,126.0,Windows,10.0,https://app.prolific.com/,"en-GB,en;q=0.5",azv8u4,grammatical_2.mp3,grammar_learning,,,4,,,,,
7779,7,audio-slider-response,83,1476798,0.0-19.0-0.4,10,tonic A4,2024-06-01 10:20:55,dbf4c01b3354d3453d67d51790ec2aaf,82.132.236.72,Mozilla/5.0 (Windows NT 10.0; Win64; x64; rv:126.0) Gecko/20100101 Firefox/126.0,,Firefox,126.0,Windows,10.0,https://app.prolific.com/,"en-GB,en;q=0.5",azv8u4,grammatical_1.mp3,grammar_learning,,,4,,,,,
7899,6,audio-slider-response,84,1485954,0.0-19.0-0.5,10,tonic A4,2024-06-01 10:20:55,dbf4c01b3354d3453d67d51790ec2aaf,82.132.236.72,Mozilla/5.0 (Windows NT 10.0; Win64; x64; rv:126.0) Gecko/20100101 Firefox/126.0,,Firefox,126.0,Windows,10.0,https://app.prolific.com/,"en-GB,en;q=0.5",azv8u4,agrammatical_2.mp3,grammar_learning,,,4,,,,,
7219,6,audio-slider-response,85,1493393,0.0-19.0-0.6,10,tonic A4,2024-06-01 10:20:55,dbf4c01b3354d3453d67d51790ec2aaf,82.132.236.72,Mozilla/5.0 (Windows NT 10.0; Win64; x64; rv:126.0) Gecko/20100101 Firefox/126.0,,Firefox,126.0,Windows,10.0,https://app.prolific.com/,"en-GB,en;q=0.5",azv8u4,grammatical_6.mp3,grammar_learning,,,4,,,,,
10021,5,audio-slider-response,86,1503646,0.0-19.0-0.7,10,tonic A4,2024-06-01 10:20:55,dbf4c01b3354d3453d67d51790ec2aaf,82.132.236.72,Mozilla/5.0 (Windows NT 10.0; Win64; x64; rv:126.0) Gecko/20100101 Firefox/126.0,,Firefox,126.0,Windows,10.0,https://app.prolific.com/,"en-GB,en;q=0.5",azv8u4,agrammatical_5.mp3,grammar_learning,,,4,,,,,
8120,6,audio-slider-response,87,1512102,0.0-19.0-0.8,10,tonic A4,2024-06-01 10:20:55,dbf4c01b3354d3453d67d51790ec2aaf,82.132.236.72,Mozilla/5.0 (Windows NT 10.0; Win64; x64; rv:126.0) Gecko/20100101 Firefox/126.0,,Firefox,126.0,Windows,10.0,https://app.prolific.com/,"en-GB,en;q=0.5",azv8u4,grammatical_4.mp3,grammar_learning,,,4,,,,,
6560,6,audio-slider-response,88,1518830,0.0-19.0-0.9,10,tonic A4,2024-06-01 10:20:55,dbf4c01b3354d3453d67d51790ec2aaf,82.132.236.72,Mozilla/5.0 (Windows NT 10.0; Win64; x64; rv:126.0) Gecko/20100101 Firefox/126.0,,Firefox,126.0,Windows,10.0,https://app.prolific.com/,"en-GB,en;q=0.5",azv8u4,grammatical_5.mp3,grammar_learning,,,4,,,,,
8152,5,audio-slider-response,89,1527222,0.0-19.0-0.10,10,tonic A4,2024-06-01 10:20:55,dbf4c01b3354d3453d67d51790ec2aaf,82.132.236.72,Mozilla/5.0 (Windows NT 10.0; Win64; x64; rv:126.0) Gecko/20100101 Firefox/126.0,,Firefox,126.0,Windows,10.0,https://app.prolific.com/,"en-GB,en;q=0.5",azv8u4,agrammatical_8.mp3,grammar_learning,,,4,,,,,
11621,6,audio-slider-response,90,1539015,0.0-19.0-0.11,10,tonic A4,2024-06-01 10:20:55,dbf4c01b3354d3453d67d51790ec2aaf,82.132.236.72,Mozilla/5.0 (Windows NT 10.0; Win64; x64; rv:126.0) Gecko/20100101 Firefox/126.0,,Firefox,126.0,Windows,10.0,https://app.prolific.com/,"en-GB,en;q=0.5",azv8u4,grammatical_7.mp3,grammar_learning,,,4,,,,,
7211,5,audio-slider-response,91,1546218,0.0-19.0-0.12,10,tonic A4,2024-06-01 10:20:55,dbf4c01b3354d3453d67d51790ec2aaf,82.132.236.72,Mozilla/5.0 (Windows NT 10.0; Win64; x64; rv:126.0) Gecko/20100101 Firefox/126.0,,Firefox,126.0,Windows,10.0,https://app.prolific.com/,"en-GB,en;q=0.5",azv8u4,grammatical_3.mp3,grammar_learning,,,4,,,,,
8400,5,audio-slider-response,92,1554802,0.0-19.0-0.13,10,tonic A4,2024-06-01 10:20:55,dbf4c01b3354d3453d67d51790ec2aaf,82.132.236.72,Mozilla/5.0 (Windows NT 10.0; Win64; x64; rv:126.0) Gecko/20100101 Firefox/126.0,,Firefox,126.0,Windows,10.0,https://app.prolific.com/,"en-GB,en;q=0.5",azv8u4,agrammatical_4.mp3,grammar_learning,,,4,,,,,
7952,5,audio-slider-response,93,1563059,0.0-19.0-0.14,10,tonic A4,2024-06-01 10:20:55,dbf4c01b3354d3453d67d51790ec2aaf,82.132.236.72,Mozilla/5.0 (Windows NT 10.0; Win64; x64; rv:126.0) Gecko/20100101 Firefox/126.0,,Firefox,126.0,Windows,10.0,https://app.prolific.com/,"en-GB,en;q=0.5",azv8u4,agrammatical_3.mp3,grammar_learning,,,4,,,,,
6139,5,audio-slider-response,94,1569361,0.0-19.0-0.15,10,tonic A4,2024-06-01 10:20:55,dbf4c01b3354d3453d67d51790ec2aaf,82.132.236.72,Mozilla/5.0 (Windows NT 10.0; Win64; x64; rv:126.0) Gecko/20100101 Firefox/126.0,,Firefox,126.0,Windows,10.0,https://app.prolific.com/,"en-GB,en;q=0.5",azv8u4,agrammatical_6.mp3,grammar_learning,,,4,,,,,
46048,"{""prolific_id"":""most were the same at the end part, so there was always at least a little similarity""}",survey-html-form,95,1615413,0.0-20.0,10,tonic A4,2024-06-01 10:20:55,dbf4c01b3354d3453d67d51790ec2aaf,82.132.236.72,Mozilla/5.0 (Windows NT 10.0; Win64; x64; rv:126.0) Gecko/20100101 Firefox/126.0,,Firefox,126.0,Windows,10.0,https://app.prolific.com/,"en-GB,en;q=0.5",azv8u4,,,,,,,,,,
2935, ,html-keyboard-response,96,1618351,0.0-21.0,10,tonic A4,2024-06-01 10:20:55,dbf4c01b3354d3453d67d51790ec2aaf,82.132.236.72,Mozilla/5.0 (Windows NT 10.0; Win64; x64; rv:126.0) Gecko/20100101 Firefox/126.0,,Firefox,126.0,Windows,10.0,https://app.prolific.com/,"en-GB,en;q=0.5",azv8u4,"<p>In this part of the experiment, you will presented with two melodies in succession. 
    <p><b>Press the space bar to continue.</b></p>",,,,,,,,,
2679, ,html-keyboard-response,97,1621032,0.0-22.0,10,tonic A4,2024-06-01 10:20:55,dbf4c01b3354d3453d67d51790ec2aaf,82.132.236.72,Mozilla/5.0 (Windows NT 10.0; Win64; x64; rv:126.0) Gecko/20100101 Firefox/126.0,,Firefox,126.0,Windows,10.0,https://app.prolific.com/,"en-GB,en;q=0.5",azv8u4,"<p>The melodies are nearly identical, but have either an added accent or one different note. </p>
    <p><b>Press the space bar to continue.</b></p>",,,,,,,,,
1419, ,html-keyboard-response,98,1622453,0.0-23.0,10,tonic A4,2024-06-01 10:20:55,dbf4c01b3354d3453d67d51790ec2aaf,82.132.236.72,Mozilla/5.0 (Windows NT 10.0; Win64; x64; rv:126.0) Gecko/20100101 Firefox/126.0,,Firefox,126.0,Windows,10.0,https://app.prolific.com/,"en-GB,en;q=0.5",azv8u4,"<p>    Please choose the melody that <b>sounds better to you.</b></p>
    <p><b>Press the space bar to continue.</b></p>",,,,,,,,,
1194, ,html-keyboard-response,99,1623650,0.0-24.0,10,tonic A4,2024-06-01 10:20:55,dbf4c01b3354d3453d67d51790ec2aaf,82.132.236.72,Mozilla/5.0 (Windows NT 10.0; Win64; x64; rv:126.0) Gecko/20100101 Firefox/126.0,,Firefox,126.0,Windows,10.0,https://app.prolific.com/,"en-GB,en;q=0.5",azv8u4,There are <b>32 questions</b> in this section.,,,,,,,,,
8149,f,audio-keyboard-response,100,1631975,0.0-25.0-0.0,10,tonic A4,2024-06-01 10:20:55,dbf4c01b3354d3453d67d51790ec2aaf,82.132.236.72,Mozilla/5.0 (Windows NT 10.0; Win64; x64; rv:126.0) Gecko/20100101 Firefox/126.0,,Firefox,126.0,Windows,10.0,https://app.prolific.com/,"en-GB,en;q=0.5",azv8u4,fc_accents_56_1.mp3,forced_choice,,,,j,NA,false,false,
9011,j,audio-keyboard-response,101,1642243,0.0-25.0-0.1,10,tonic A4,2024-06-01 10:20:55,dbf4c01b3354d3453d67d51790ec2aaf,82.132.236.72,Mozilla/5.0 (Windows NT 10.0; Win64; x64; rv:126.0) Gecko/20100101 Firefox/126.0,,Firefox,126.0,Windows,10.0,https://app.prolific.com/,"en-GB,en;q=0.5",azv8u4,fc_IC_default_3_4.mp3,forced_choice,,,,NA,f,false,false,
7632,j,audio-keyboard-response,102,1650097,0.0-25.0-0.2,10,tonic A4,2024-06-01 10:20:55,dbf4c01b3354d3453d67d51790ec2aaf,82.132.236.72,Mozilla/5.0 (Windows NT 10.0; Win64; x64; rv:126.0) Gecko/20100101 Firefox/126.0,,Firefox,126.0,Windows,10.0,https://app.prolific.com/,"en-GB,en;q=0.5",azv8u4,fc_IC_default_5_4.mp3,forced_choice,,,,NA,j,false,true,
6440,f,audio-keyboard-response,103,1656542,0.0-25.0-0.3,10,tonic A4,2024-06-01 10:20:55,dbf4c01b3354d3453d67d51790ec2aaf,82.132.236.72,Mozilla/5.0 (Windows NT 10.0; Win64; x64; rv:126.0) Gecko/20100101 Firefox/126.0,,Firefox,126.0,Windows,10.0,https://app.prolific.com/,"en-GB,en;q=0.5",azv8u4,fc_accents_56_4.mp3,forced_choice,,,,j,NA,false,false,
5771,f,audio-keyboard-response,104,1662494,0.0-25.0-0.4,10,tonic A4,2024-06-01 10:20:55,dbf4c01b3354d3453d67d51790ec2aaf,82.132.236.72,Mozilla/5.0 (Windows NT 10.0; Win64; x64; rv:126.0) Gecko/20100101 Firefox/126.0,,Firefox,126.0,Windows,10.0,https://app.prolific.com/,"en-GB,en;q=0.5",azv8u4,fc_accents_34_3.mp3,forced_choice,,,,j,NA,false,false,
7411,f,audio-keyboard-response,105,1669898,0.0-25.0-0.5,10,tonic A4,2024-06-01 10:20:55,dbf4c01b3354d3453d67d51790ec2aaf,82.132.236.72,Mozilla/5.0 (Windows NT 10.0; Win64; x64; rv:126.0) Gecko/20100101 Firefox/126.0,,Firefox,126.0,Windows,10.0,https://app.prolific.com/,"en-GB,en;q=0.5",azv8u4,fc_accents_32_1.mp3,forced_choice,,,,j,NA,false,false,
7461,j,audio-keyboard-response,106,1677578,0.0-25.0-0.6,10,tonic A4,2024-06-01 10:20:55,dbf4c01b3354d3453d67d51790ec2aaf,82.132.236.72,Mozilla/5.0 (Windows NT 10.0; Win64; x64; rv:126.0) Gecko/20100101 Firefox/126.0,,Firefox,126.0,Windows,10.0,https://app.prolific.com/,"en-GB,en;q=0.5",azv8u4,fc_IC_accent_5_4.mp3,forced_choice,,,,NA,j,false,true,
6861,j,audio-keyboard-response,107,1684615,0.0-25.0-0.7,10,tonic A4,2024-06-01 10:20:55,dbf4c01b3354d3453d67d51790ec2aaf,82.132.236.72,Mozilla/5.0 (Windows NT 10.0; Win64; x64; rv:126.0) Gecko/20100101 Firefox/126.0,,Firefox,126.0,Windows,10.0,https://app.prolific.com/,"en-GB,en;q=0.5",azv8u4,fc_IC_accent_5_1.mp3,forced_choice,,,,NA,j,false,true,
