rt,response,trial_type,trial_index,time_elapsed,internal_node_id,run_id,condition,recorded_at,source_code_version,ip,user_agent,device,browser,browser_version,platform,platform_version,referer,accept_language,subject,stimulus,task,correct,subtask,slider_start,accent,high_IC,accent_chosen,high_IC_chosen,question_order
3770,"{""prolific_id"":""6658b1c3dd60f6a0b5dcab6d""}",survey-html-form,0,3781,0.0-0.0,17,tonic Bb4,2024-06-01 12:02:17,d6d641a8381b51745ea9a774607a039e,195.89.182.86,"Mozilla/5.0 (Windows NT 10.0; Win64; x64) AppleWebKit/537.36 (KHTML, like Gecko) Chrome/125.0.0.0 Safari/537.36",WebKit,Chrome,125.0.0.0,Windows,10.0,https://app.prolific.com/,"en-GB,en-US;q=0.9,en;q=0.8",87o3mz,,,,,,,,,,
3928, ,html-keyboard-response,1,7717,0.0-1.0,17,tonic Bb4,2024-06-01 12:02:17,d6d641a8381b51745ea9a774607a039e,195.89.182.86,"Mozilla/5.0 (Windows NT 10.0; Win64; x64) AppleWebKit/537.36 (KHTML, like Gecko) Chrome/125.0.0.0 Safari/537.36",WebKit,Chrome,125.0.0.0,Windows,10.0,https://app.prolific.com/,"en-GB,en-US;q=0.9,en;q=0.8",87o3mz,"
    <p>Please complete the experiment in a quiet place.
      We highly recommend using headphones.</p>

    </p align = 'justify'> <b>Press the space bar to proceed.</b> </p>",,,,,,,,,
1451, ,html-keyboard-response,2,9170,0.0-2.0,17,tonic Bb4,2024-06-01 12:02:17,d6d641a8381b51745ea9a774607a039e,195.89.182.86,"Mozilla/5.0 (Windows NT 10.0; Win64; x64) AppleWebKit/537.36 (KHTML, like Gecko) Chrome/125.0.0.0 Safari/537.36",WebKit,Chrome,125.0.0.0,Windows,10.0,https://app.prolific.com/,"en-GB,en-US;q=0.9,en;q=0.8",87o3mz,"
    <p>A series of soundchecks will now be played to help you adjust the volume
      to a comfortable level. </p>

    </p align = 'justify'> <b>Press the space bar to proceed.</b> </p>",,,,,,,,,
9472,0,audio-button-response,3,18933,0.0-3.0-0.0,17,tonic Bb4,2024-06-01 12:02:17,d6d641a8381b51745ea9a774607a039e,195.89.182.86,"Mozilla/5.0 (Windows NT 10.0; Win64; x64) AppleWebKit/537.36 (KHTML, like Gecko) Chrome/125.0.0.0 Safari/537.36",WebKit,Chrome,125.0.0.0,Windows,10.0,https://app.prolific.com/,"en-GB,en-US;q=0.9,en;q=0.8",87o3mz,grammatical_1.mp3,,,,,,,,,
6288,1,audio-button-response,4,25228,0.0-3.1-0.1,17,tonic Bb4,2024-06-01 12:02:17,d6d641a8381b51745ea9a774607a039e,195.89.182.86,"Mozilla/5.0 (Windows NT 10.0; Win64; x64) AppleWebKit/537.36 (KHTML, like Gecko) Chrome/125.0.0.0 Safari/537.36",WebKit,Chrome,125.0.0.0,Windows,10.0,https://app.prolific.com/,"en-GB,en-US;q=0.9,en;q=0.8",87o3mz,grammatical_1.mp3,,,,,,,,,
4452, ,html-keyboard-response,5,29682,0.0-4.0,17,tonic Bb4,2024-06-01 12:02:17,d6d641a8381b51745ea9a774607a039e,195.89.182.86,"Mozilla/5.0 (Windows NT 10.0; Win64; x64) AppleWebKit/537.36 (KHTML, like Gecko) Chrome/125.0.0.0 Safari/537.36",WebKit,Chrome,125.0.0.0,Windows,10.0,https://app.prolific.com/,"en-GB,en-US;q=0.9,en;q=0.8",87o3mz,"<p width = 300 px>
    You will now hear two melodies in succession. 
    The notes in each melody are the same, but there is an accent on one note for one of the melodies. 
    <b>Listen for which melody has the accent.</b>
    </p>
    
    Press the space bar to continue.",,,,,,,,,
1845, ,html-keyboard-response,6,31529,0.0-5.0,17,tonic Bb4,2024-06-01 12:02:17,d6d641a8381b51745ea9a774607a039e,195.89.182.86,"Mozilla/5.0 (Windows NT 10.0; Win64; x64) AppleWebKit/537.36 (KHTML, like Gecko) Chrome/125.0.0.0 Safari/537.36",WebKit,Chrome,125.0.0.0,Windows,10.0,https://app.prolific.com/,"en-GB,en-US;q=0.9,en;q=0.8",87o3mz,"<p width = 300 px>
    <b>You must score at least 2/3 to proceed with the experiment.</b>
    </p>
    
    Press the space bar to continue.",,,,,,,,,
6051,1,audio-button-response,7,37770,0.0-6.0,17,tonic Bb4,2024-06-01 12:02:17,d6d641a8381b51745ea9a774607a039e,195.89.182.86,"Mozilla/5.0 (Windows NT 10.0; Win64; x64) AppleWebKit/537.36 (KHTML, like Gecko) Chrome/125.0.0.0 Safari/537.36",WebKit,Chrome,125.0.0.0,Windows,10.0,https://app.prolific.com/,"en-GB,en-US;q=0.9,en;q=0.8",87o3mz,fc_accents_32_1.mp3,soundcheck,true,,,,,,,
911, ,html-keyboard-response,8,38683,0.0-7.0,17,tonic Bb4,2024-06-01 12:02:17,d6d641a8381b51745ea9a774607a039e,195.89.182.86,"Mozilla/5.0 (Windows NT 10.0; Win64; x64) AppleWebKit/537.36 (KHTML, like Gecko) Chrome/125.0.0.0 Safari/537.36",WebKit,Chrome,125.0.0.0,Windows,10.0,https://app.prolific.com/,"en-GB,en-US;q=0.9,en;q=0.8",87o3mz,<p>Correct!</p> Press the space bar to continue.,,,,,,,,,
5760,1,audio-button-response,9,44617,0.0-8.0,17,tonic Bb4,2024-06-01 12:02:17,d6d641a8381b51745ea9a774607a039e,195.89.182.86,"Mozilla/5.0 (Windows NT 10.0; Win64; x64) AppleWebKit/537.36 (KHTML, like Gecko) Chrome/125.0.0.0 Safari/537.36",WebKit,Chrome,125.0.0.0,Windows,10.0,https://app.prolific.com/,"en-GB,en-US;q=0.9,en;q=0.8",87o3mz,fc_accents_56_4.mp3,soundcheck,true,,,,,,,
780, ,html-keyboard-response,10,45400,0.0-9.0,17,tonic Bb4,2024-06-01 12:02:17,d6d641a8381b51745ea9a774607a039e,195.89.182.86,"Mozilla/5.0 (Windows NT 10.0; Win64; x64) AppleWebKit/537.36 (KHTML, like Gecko) Chrome/125.0.0.0 Safari/537.36",WebKit,Chrome,125.0.0.0,Windows,10.0,https://app.prolific.com/,"en-GB,en-US;q=0.9,en;q=0.8",87o3mz,<p>Correct!</p> Press the space bar to continue.,,,,,,,,,
7179,1,audio-button-response,11,52753,0.0-10.0,17,tonic Bb4,2024-06-01 12:02:17,d6d641a8381b51745ea9a774607a039e,195.89.182.86,"Mozilla/5.0 (Windows NT 10.0; Win64; x64) AppleWebKit/537.36 (KHTML, like Gecko) Chrome/125.0.0.0 Safari/537.36",WebKit,Chrome,125.0.0.0,Windows,10.0,https://app.prolific.com/,"en-GB,en-US;q=0.9,en;q=0.8",87o3mz,fc_accents_54_4.mp3,soundcheck,true,,,,,,,
27956, ,html-keyboard-response,12,80712,0.0-11.0,17,tonic Bb4,2024-06-01 12:02:17,d6d641a8381b51745ea9a774607a039e,195.89.182.86,"Mozilla/5.0 (Windows NT 10.0; Win64; x64) AppleWebKit/537.36 (KHTML, like Gecko) Chrome/125.0.0.0 Safari/537.36",WebKit,Chrome,125.0.0.0,Windows,10.0,https://app.prolific.com/,"en-GB,en-US;q=0.9,en;q=0.8",87o3mz,<p>Correct!</p> Press the space bar to continue.,,,,,,,,,
12758, ,html-keyboard-response,13,93471,0.0-12.0,17,tonic Bb4,2024-06-01 12:02:17,d6d641a8381b51745ea9a774607a039e,195.89.182.86,"Mozilla/5.0 (Windows NT 10.0; Win64; x64) AppleWebKit/537.36 (KHTML, like Gecko) Chrome/125.0.0.0 Safari/537.36",WebKit,Chrome,125.0.0.0,Windows,10.0,https://app.prolific.com/,"en-GB,en-US;q=0.9,en;q=0.8",87o3mz,"If you got <b>less than 2/3</b> of the previous soundcheck questions correct, <b>we unfortunately cannot use your data or pay you</b>. Please exit the experiment now.
    
    <p>If you got <b>more than 2/3</b> correct, press the space bar to continue</p>.",,,,,,,,,
7964, ,html-keyboard-response,14,101437,0.0-13.0,17,tonic Bb4,2024-06-01 12:02:17,d6d641a8381b51745ea9a774607a039e,195.89.182.86,"Mozilla/5.0 (Windows NT 10.0; Win64; x64) AppleWebKit/537.36 (KHTML, like Gecko) Chrome/125.0.0.0 Safari/537.36",WebKit,Chrome,125.0.0.0,Windows,10.0,https://app.prolific.com/,"en-GB,en-US;q=0.9,en;q=0.8",87o3mz,"<p>Please listen carefully to the following set of melodies. 
      You will occassionally be asked some basic questions about some of the melodies to check your attention level. </p>
    <p><b>Press the space bar to continue.</b></p>",,,,,,,,,
7765, ,html-keyboard-response,15,109204,0.0-14.0,17,tonic Bb4,2024-06-01 12:02:17,d6d641a8381b51745ea9a774607a039e,195.89.182.86,"Mozilla/5.0 (Windows NT 10.0; Win64; x64) AppleWebKit/537.36 (KHTML, like Gecko) Chrome/125.0.0.0 Safari/537.36",WebKit,Chrome,125.0.0.0,Windows,10.0,https://app.prolific.com/,"en-GB,en-US;q=0.9,en;q=0.8",87o3mz,"<p>The attention questions vary in difficulty, but you must get at least some questions correct for us to pay you.</p>
    <p><b>Press the space bar to continue.</b></p>",,,,,,,,,
1397, ,html-keyboard-response,16,110603,0.0-15.0,17,tonic Bb4,2024-06-01 12:02:17,d6d641a8381b51745ea9a774607a039e,195.89.182.86,"Mozilla/5.0 (Windows NT 10.0; Win64; x64) AppleWebKit/537.36 (KHTML, like Gecko) Chrome/125.0.0.0 Safari/537.36",WebKit,Chrome,125.0.0.0,Windows,10.0,https://app.prolific.com/,"en-GB,en-US;q=0.9,en;q=0.8",87o3mz,"
    This part of the experiment should take <b>15-20 minutes</b>. 
    <p><b>Press the space bar to begin.</b></p>",,,,,,,,,
null,null,audio-keyboard-response,17,134162,0.0-16.0-0.0,17,tonic Bb4,2024-06-01 12:02:17,d6d641a8381b51745ea9a774607a039e,195.89.182.86,"Mozilla/5.0 (Windows NT 10.0; Win64; x64) AppleWebKit/537.36 (KHTML, like Gecko) Chrome/125.0.0.0 Safari/537.36",WebKit,Chrome,125.0.0.0,Windows,10.0,https://app.prolific.com/,"en-GB,en-US;q=0.9,en;q=0.8",87o3mz,"[""exposure_4s_22.mp3""]",exposure,,exp_noresponse,,,,,,
null,null,audio-keyboard-response,18,157818,0.0-16.0-1.0,17,tonic Bb4,2024-06-01 12:02:17,d6d641a8381b51745ea9a774607a039e,195.89.182.86,"Mozilla/5.0 (Windows NT 10.0; Win64; x64) AppleWebKit/537.36 (KHTML, like Gecko) Chrome/125.0.0.0 Safari/537.36",WebKit,Chrome,125.0.0.0,Windows,10.0,https://app.prolific.com/,"en-GB,en-US;q=0.9,en;q=0.8",87o3mz,"[""exposure_4s_43.mp3""]",exposure,,exp_noresponse,,,,,,
null,null,audio-keyboard-response,19,181255,0.0-16.0-2.0,17,tonic Bb4,2024-06-01 12:02:17,d6d641a8381b51745ea9a774607a039e,195.89.182.86,"Mozilla/5.0 (Windows NT 10.0; Win64; x64) AppleWebKit/537.36 (KHTML, like Gecko) Chrome/125.0.0.0 Safari/537.36",WebKit,Chrome,125.0.0.0,Windows,10.0,https://app.prolific.com/,"en-GB,en-US;q=0.9,en;q=0.8",87o3mz,"[""exposure_4s_42.mp3""]",exposure,,exp_noresponse,,,,,,
null,null,audio-keyboard-response,20,204689,0.0-16.0-3.0,17,tonic Bb4,2024-06-01 12:02:17,d6d641a8381b51745ea9a774607a039e,195.89.182.86,"Mozilla/5.0 (Windows NT 10.0; Win64; x64) AppleWebKit/537.36 (KHTML, like Gecko) Chrome/125.0.0.0 Safari/537.36",WebKit,Chrome,125.0.0.0,Windows,10.0,https://app.prolific.com/,"en-GB,en-US;q=0.9,en;q=0.8",87o3mz,"[""exposure_4s_2.mp3""]",exposure,,exp_noresponse,,,,,,
null,null,audio-keyboard-response,21,228051,0.0-16.0-4.0,17,tonic Bb4,2024-06-01 12:02:17,d6d641a8381b51745ea9a774607a039e,195.89.182.86,"Mozilla/5.0 (Windows NT 10.0; Win64; x64) AppleWebKit/537.36 (KHTML, like Gecko) Chrome/125.0.0.0 Safari/537.36",WebKit,Chrome,125.0.0.0,Windows,10.0,https://app.prolific.com/,"en-GB,en-US;q=0.9,en;q=0.8",87o3mz,"[""exposure_4s_16.mp3""]",exposure,,exp_noresponse,,,,,,
null,null,audio-keyboard-response,22,251478,0.0-16.0-5.0,17,tonic Bb4,2024-06-01 12:02:17,d6d641a8381b51745ea9a774607a039e,195.89.182.86,"Mozilla/5.0 (Windows NT 10.0; Win64; x64) AppleWebKit/537.36 (KHTML, like Gecko) Chrome/125.0.0.0 Safari/537.36",WebKit,Chrome,125.0.0.0,Windows,10.0,https://app.prolific.com/,"en-GB,en-US;q=0.9,en;q=0.8",87o3mz,"[""exposure_4s_35.mp3""]",exposure,,exp_noresponse,,,,,,
null,null,audio-keyboard-response,23,275062,0.0-16.0-6.0,17,tonic Bb4,2024-06-01 12:02:17,d6d641a8381b51745ea9a774607a039e,195.89.182.86,"Mozilla/5.0 (Windows NT 10.0; Win64; x64) AppleWebKit/537.36 (KHTML, like Gecko) Chrome/125.0.0.0 Safari/537.36",WebKit,Chrome,125.0.0.0,Windows,10.0,https://app.prolific.com/,"en-GB,en-US;q=0.9,en;q=0.8",87o3mz,"[""exposure_4s_24.mp3""]",exposure,,exp_noresponse,,,,,,
13040,1,audio-button-response,24,288421,0.0-16.0-7.0,17,tonic Bb4,2024-06-01 12:02:17,d6d641a8381b51745ea9a774607a039e,195.89.182.86,"Mozilla/5.0 (Windows NT 10.0; Win64; x64) AppleWebKit/537.36 (KHTML, like Gecko) Chrome/125.0.0.0 Safari/537.36",WebKit,Chrome,125.0.0.0,Windows,10.0,https://app.prolific.com/,"en-GB,en-US;q=0.9,en;q=0.8",87o3mz,attn_length_hard_1.mp3,exposure,true,attncheck,,,,,,
null,null,audio-keyboard-response,25,311838,0.0-16.0-8.0,17,tonic Bb4,2024-06-01 12:02:17,d6d641a8381b51745ea9a774607a039e,195.89.182.86,"Mozilla/5.0 (Windows NT 10.0; Win64; x64) AppleWebKit/537.36 (KHTML, like Gecko) Chrome/125.0.0.0 Safari/537.36",WebKit,Chrome,125.0.0.0,Windows,10.0,https://app.prolific.com/,"en-GB,en-US;q=0.9,en;q=0.8",87o3mz,"[""exposure_4s_20.mp3""]",exposure,,exp_noresponse,,,,,,
null,null,audio-keyboard-response,26,335367,0.0-16.0-9.0,17,tonic Bb4,2024-06-01 12:02:17,d6d641a8381b51745ea9a774607a039e,195.89.182.86,"Mozilla/5.0 (Windows NT 10.0; Win64; x64) AppleWebKit/537.36 (KHTML, like Gecko) Chrome/125.0.0.0 Safari/537.36",WebKit,Chrome,125.0.0.0,Windows,10.0,https://app.prolific.com/,"en-GB,en-US;q=0.9,en;q=0.8",87o3mz,"[""exposure_4s_27.mp3""]",exposure,,exp_noresponse,,,,,,
null,null,audio-keyboard-response,27,358810,0.0-16.0-10.0,17,tonic Bb4,2024-06-01 12:02:17,d6d641a8381b51745ea9a774607a039e,195.89.182.86,"Mozilla/5.0 (Windows NT 10.0; Win64; x64) AppleWebKit/537.36 (KHTML, like Gecko) Chrome/125.0.0.0 Safari/537.36",WebKit,Chrome,125.0.0.0,Windows,10.0,https://app.prolific.com/,"en-GB,en-US;q=0.9,en;q=0.8",87o3mz,"[""exposure_4s_23.mp3""]",exposure,,exp_noresponse,,,,,,
null,null,audio-keyboard-response,28,382424,0.0-16.0-11.0,17,tonic Bb4,2024-06-01 12:02:17,d6d641a8381b51745ea9a774607a039e,195.89.182.86,"Mozilla/5.0 (Windows NT 10.0; Win64; x64) AppleWebKit/537.36 (KHTML, like Gecko) Chrome/125.0.0.0 Safari/537.36",WebKit,Chrome,125.0.0.0,Windows,10.0,https://app.prolific.com/,"en-GB,en-US;q=0.9,en;q=0.8",87o3mz,"[""exposure_4s_44.mp3""]",exposure,,exp_noresponse,,,,,,
null,null,audio-keyboard-response,29,405436,0.0-16.0-12.0,17,tonic Bb4,2024-06-01 12:02:17,d6d641a8381b51745ea9a774607a039e,195.89.182.86,"Mozilla/5.0 (Windows NT 10.0; Win64; x64) AppleWebKit/537.36 (KHTML, like Gecko) Chrome/125.0.0.0 Safari/537.36",WebKit,Chrome,125.0.0.0,Windows,10.0,https://app.prolific.com/,"en-GB,en-US;q=0.9,en;q=0.8",87o3mz,"[""exposure_4s_22.mp3""]",exposure,,exp_noresponse,,,,,,
null,null,audio-keyboard-response,30,429093,0.0-16.0-13.0,17,tonic Bb4,2024-06-01 12:02:17,d6d641a8381b51745ea9a774607a039e,195.89.182.86,"Mozilla/5.0 (Windows NT 10.0; Win64; x64) AppleWebKit/537.36 (KHTML, like Gecko) Chrome/125.0.0.0 Safari/537.36",WebKit,Chrome,125.0.0.0,Windows,10.0,https://app.prolific.com/,"en-GB,en-US;q=0.9,en;q=0.8",87o3mz,"[""exposure_4s_18.mp3""]",exposure,,exp_noresponse,,,,,,
684709,1,audio-button-response,31,1114676,0.0-16.0-14.0,17,tonic Bb4,2024-06-01 12:02:17,d6d641a8381b51745ea9a774607a039e,195.89.182.86,"Mozilla/5.0 (Windows NT 10.0; Win64; x64) AppleWebKit/537.36 (KHTML, like Gecko) Chrome/125.0.0.0 Safari/537.36",WebKit,Chrome,125.0.0.0,Windows,10.0,https://app.prolific.com/,"en-GB,en-US;q=0.9,en;q=0.8",87o3mz,attn_length_easy_1.mp3,exposure,true,attncheck,,,,,,
null,null,audio-keyboard-response,32,1137690,0.0-16.0-15.0,17,tonic Bb4,2024-06-01 12:02:17,d6d641a8381b51745ea9a774607a039e,195.89.182.86,"Mozilla/5.0 (Windows NT 10.0; Win64; x64) AppleWebKit/537.36 (KHTML, like Gecko) Chrome/125.0.0.0 Safari/537.36",WebKit,Chrome,125.0.0.0,Windows,10.0,https://app.prolific.com/,"en-GB,en-US;q=0.9,en;q=0.8",87o3mz,"[""exposure_4s_22.mp3""]",exposure,,exp_noresponse,,,,,,
350629,0,audio-button-response,33,1492458,0.0-16.0-16.0,17,tonic Bb4,2024-06-01 12:02:17,d6d641a8381b51745ea9a774607a039e,195.89.182.86,"Mozilla/5.0 (Windows NT 10.0; Win64; x64) AppleWebKit/537.36 (KHTML, like Gecko) Chrome/125.0.0.0 Safari/537.36",WebKit,Chrome,125.0.0.0,Windows,10.0,https://app.prolific.com/,"en-GB,en-US;q=0.9,en;q=0.8",87o3mz,attn_length_easy_1.mp3,exposure,false,attncheck,,,,,,
null,null,audio-keyboard-response,34,1515470,0.0-16.0-17.0,17,tonic Bb4,2024-06-01 12:02:17,d6d641a8381b51745ea9a774607a039e,195.89.182.86,"Mozilla/5.0 (Windows NT 10.0; Win64; x64) AppleWebKit/537.36 (KHTML, like Gecko) Chrome/125.0.0.0 Safari/537.36",WebKit,Chrome,125.0.0.0,Windows,10.0,https://app.prolific.com/,"en-GB,en-US;q=0.9,en;q=0.8",87o3mz,"[""exposure_4s_27.mp3""]",exposure,,exp_noresponse,,,,,,
null,null,audio-keyboard-response,35,1539017,0.0-16.0-18.0,17,tonic Bb4,2024-06-01 12:02:17,d6d641a8381b51745ea9a774607a039e,195.89.182.86,"Mozilla/5.0 (Windows NT 10.0; Win64; x64) AppleWebKit/537.36 (KHTML, like Gecko) Chrome/125.0.0.0 Safari/537.36",WebKit,Chrome,125.0.0.0,Windows,10.0,https://app.prolific.com/,"en-GB,en-US;q=0.9,en;q=0.8",87o3mz,"[""exposure_4s_6.mp3""]",exposure,,exp_noresponse,,,,,,
null,null,audio-keyboard-response,36,1562485,0.0-16.0-19.0,17,tonic Bb4,2024-06-01 12:02:17,d6d641a8381b51745ea9a774607a039e,195.89.182.86,"Mozilla/5.0 (Windows NT 10.0; Win64; x64) AppleWebKit/537.36 (KHTML, like Gecko) Chrome/125.0.0.0 Safari/537.36",WebKit,Chrome,125.0.0.0,Windows,10.0,https://app.prolific.com/,"en-GB,en-US;q=0.9,en;q=0.8",87o3mz,"[""exposure_4s_14.mp3""]",exposure,,exp_noresponse,,,,,,
605192,2,audio-slider-response,37,2167865,0.0-16.0-20.0,17,tonic Bb4,2024-06-01 12:02:17,d6d641a8381b51745ea9a774607a039e,195.89.182.86,"Mozilla/5.0 (Windows NT 10.0; Win64; x64) AppleWebKit/537.36 (KHTML, like Gecko) Chrome/125.0.0.0 Safari/537.36",WebKit,Chrome,125.0.0.0,Windows,10.0,https://app.prolific.com/,"en-GB,en-US;q=0.9,en;q=0.8",87o3mz,"[""grammatical_5.mp3""]",exposure,,exp_liking,4,,,,,
null,null,audio-keyboard-response,38,2191388,0.0-16.0-21.0,17,tonic Bb4,2024-06-01 12:02:17,d6d641a8381b51745ea9a774607a039e,195.89.182.86,"Mozilla/5.0 (Windows NT 10.0; Win64; x64) AppleWebKit/537.36 (KHTML, like Gecko) Chrome/125.0.0.0 Safari/537.36",WebKit,Chrome,125.0.0.0,Windows,10.0,https://app.prolific.com/,"en-GB,en-US;q=0.9,en;q=0.8",87o3mz,"[""exposure_4s_1.mp3""]",exposure,,exp_noresponse,,,,,,
null,null,audio-keyboard-response,39,2214393,0.0-16.0-22.0,17,tonic Bb4,2024-06-01 12:02:17,d6d641a8381b51745ea9a774607a039e,195.89.182.86,"Mozilla/5.0 (Windows NT 10.0; Win64; x64) AppleWebKit/537.36 (KHTML, like Gecko) Chrome/125.0.0.0 Safari/537.36",WebKit,Chrome,125.0.0.0,Windows,10.0,https://app.prolific.com/,"en-GB,en-US;q=0.9,en;q=0.8",87o3mz,"[""exposure_4s_23.mp3""]",exposure,,exp_noresponse,,,,,,
null,null,audio-keyboard-response,40,2237407,0.0-16.0-23.0,17,tonic Bb4,2024-06-01 12:02:17,d6d641a8381b51745ea9a774607a039e,195.89.182.86,"Mozilla/5.0 (Windows NT 10.0; Win64; x64) AppleWebKit/537.36 (KHTML, like Gecko) Chrome/125.0.0.0 Safari/537.36",WebKit,Chrome,125.0.0.0,Windows,10.0,https://app.prolific.com/,"en-GB,en-US;q=0.9,en;q=0.8",87o3mz,"[""exposure_4s_24.mp3""]",exposure,,exp_noresponse,,,,,,
689080,2,audio-slider-response,41,2936183,0.0-16.0-24.0,17,tonic Bb4,2024-06-01 12:02:17,d6d641a8381b51745ea9a774607a039e,195.89.182.86,"Mozilla/5.0 (Windows NT 10.0; Win64; x64) AppleWebKit/537.36 (KHTML, like Gecko) Chrome/125.0.0.0 Safari/537.36",WebKit,Chrome,125.0.0.0,Windows,10.0,https://app.prolific.com/,"en-GB,en-US;q=0.9,en;q=0.8",87o3mz,"[""grammatical_5.mp3""]",exposure,,exp_liking,4,,,,,
null,null,audio-keyboard-response,42,2959750,0.0-16.0-25.0,17,tonic Bb4,2024-06-01 12:02:17,d6d641a8381b51745ea9a774607a039e,195.89.182.86,"Mozilla/5.0 (Windows NT 10.0; Win64; x64) AppleWebKit/537.36 (KHTML, like Gecko) Chrome/125.0.0.0 Safari/537.36",WebKit,Chrome,125.0.0.0,Windows,10.0,https://app.prolific.com/,"en-GB,en-US;q=0.9,en;q=0.8",87o3mz,"[""exposure_4s_25.mp3""]",exposure,,exp_noresponse,,,,,,
null,null,audio-keyboard-response,43,2982763,0.0-16.0-26.0,17,tonic Bb4,2024-06-01 12:02:17,d6d641a8381b51745ea9a774607a039e,195.89.182.86,"Mozilla/5.0 (Windows NT 10.0; Win64; x64) AppleWebKit/537.36 (KHTML, like Gecko) Chrome/125.0.0.0 Safari/537.36",WebKit,Chrome,125.0.0.0,Windows,10.0,https://app.prolific.com/,"en-GB,en-US;q=0.9,en;q=0.8",87o3mz,"[""exposure_4s_25.mp3""]",exposure,,exp_noresponse,,,,,,
14611,2,audio-slider-response,44,2997550,0.0-16.0-27.0,17,tonic Bb4,2024-06-01 12:02:17,d6d641a8381b51745ea9a774607a039e,195.89.182.86,"Mozilla/5.0 (Windows NT 10.0; Win64; x64) AppleWebKit/537.36 (KHTML, like Gecko) Chrome/125.0.0.0 Safari/537.36",WebKit,Chrome,125.0.0.0,Windows,10.0,https://app.prolific.com/,"en-GB,en-US;q=0.9,en;q=0.8",87o3mz,"[""grammatical_2.mp3""]",exposure,,exp_liking,4,,,,,
null,null,audio-keyboard-response,45,3021113,0.0-16.0-28.0,17,tonic Bb4,2024-06-01 12:02:17,d6d641a8381b51745ea9a774607a039e,195.89.182.86,"Mozilla/5.0 (Windows NT 10.0; Win64; x64) AppleWebKit/537.36 (KHTML, like Gecko) Chrome/125.0.0.0 Safari/537.36",WebKit,Chrome,125.0.0.0,Windows,10.0,https://app.prolific.com/,"en-GB,en-US;q=0.9,en;q=0.8",87o3mz,"[""exposure_4s_30.mp3""]",exposure,,exp_noresponse,,,,,,
null,null,audio-keyboard-response,46,3044126,0.0-16.0-29.0,17,tonic Bb4,2024-06-01 12:02:17,d6d641a8381b51745ea9a774607a039e,195.89.182.86,"Mozilla/5.0 (Windows NT 10.0; Win64; x64) AppleWebKit/537.36 (KHTML, like Gecko) Chrome/125.0.0.0 Safari/537.36",WebKit,Chrome,125.0.0.0,Windows,10.0,https://app.prolific.com/,"en-GB,en-US;q=0.9,en;q=0.8",87o3mz,"[""exposure_4s_42.mp3""]",exposure,,exp_noresponse,,,,,,
null,null,audio-keyboard-response,47,3067130,0.0-16.0-30.0,17,tonic Bb4,2024-06-01 12:02:17,d6d641a8381b51745ea9a774607a039e,195.89.182.86,"Mozilla/5.0 (Windows NT 10.0; Win64; x64) AppleWebKit/537.36 (KHTML, like Gecko) Chrome/125.0.0.0 Safari/537.36",WebKit,Chrome,125.0.0.0,Windows,10.0,https://app.prolific.com/,"en-GB,en-US;q=0.9,en;q=0.8",87o3mz,"[""exposure_4s_22.mp3""]",exposure,,exp_noresponse,,,,,,
null,null,audio-keyboard-response,48,3090143,0.0-16.0-31.0,17,tonic Bb4,2024-06-01 12:02:17,d6d641a8381b51745ea9a774607a039e,195.89.182.86,"Mozilla/5.0 (Windows NT 10.0; Win64; x64) AppleWebKit/537.36 (KHTML, like Gecko) Chrome/125.0.0.0 Safari/537.36",WebKit,Chrome,125.0.0.0,Windows,10.0,https://app.prolific.com/,"en-GB,en-US;q=0.9,en;q=0.8",87o3mz,"[""exposure_4s_23.mp3""]",exposure,,exp_noresponse,,,,,,
null,null,audio-keyboard-response,49,3113694,0.0-16.0-32.0,17,tonic Bb4,2024-06-01 12:02:17,d6d641a8381b51745ea9a774607a039e,195.89.182.86,"Mozilla/5.0 (Windows NT 10.0; Win64; x64) AppleWebKit/537.36 (KHTML, like Gecko) Chrome/125.0.0.0 Safari/537.36",WebKit,Chrome,125.0.0.0,Windows,10.0,https://app.prolific.com/,"en-GB,en-US;q=0.9,en;q=0.8",87o3mz,"[""exposure_4s_26.mp3""]",exposure,,exp_noresponse,,,,,,
1466661,1,audio-button-response,50,4617883,0.0-16.0-33.0,17,tonic Bb4,2024-06-01 12:02:17,d6d641a8381b51745ea9a774607a039e,195.89.182.86,"Mozilla/5.0 (Windows NT 10.0; Win64; x64) AppleWebKit/537.36 (KHTML, like Gecko) Chrome/125.0.0.0 Safari/537.36",WebKit,Chrome,125.0.0.0,Windows,10.0,https://app.prolific.com/,"en-GB,en-US;q=0.9,en;q=0.8",87o3mz,attn_length_easy_1.mp3,exposure,true,attncheck,,,,,,
null,null,audio-keyboard-response,51,4640896,0.0-16.0-34.0,17,tonic Bb4,2024-06-01 12:02:17,d6d641a8381b51745ea9a774607a039e,195.89.182.86,"Mozilla/5.0 (Windows NT 10.0; Win64; x64) AppleWebKit/537.36 (KHTML, like Gecko) Chrome/125.0.0.0 Safari/537.36",WebKit,Chrome,125.0.0.0,Windows,10.0,https://app.prolific.com/,"en-GB,en-US;q=0.9,en;q=0.8",87o3mz,"[""exposure_4s_2.mp3""]",exposure,,exp_noresponse,,,,,,
null,null,audio-keyboard-response,52,4663906,0.0-16.0-35.0,17,tonic Bb4,2024-06-01 12:02:17,d6d641a8381b51745ea9a774607a039e,195.89.182.86,"Mozilla/5.0 (Windows NT 10.0; Win64; x64) AppleWebKit/537.36 (KHTML, like Gecko) Chrome/125.0.0.0 Safari/537.36",WebKit,Chrome,125.0.0.0,Windows,10.0,https://app.prolific.com/,"en-GB,en-US;q=0.9,en;q=0.8",87o3mz,"[""exposure_4s_2.mp3""]",exposure,,exp_noresponse,,,,,,
null,null,audio-keyboard-response,53,4687366,0.0-16.0-36.0,17,tonic Bb4,2024-06-01 12:02:17,d6d641a8381b51745ea9a774607a039e,195.89.182.86,"Mozilla/5.0 (Windows NT 10.0; Win64; x64) AppleWebKit/537.36 (KHTML, like Gecko) Chrome/125.0.0.0 Safari/537.36",WebKit,Chrome,125.0.0.0,Windows,10.0,https://app.prolific.com/,"en-GB,en-US;q=0.9,en;q=0.8",87o3mz,"[""exposure_4s_12.mp3""]",exposure,,exp_noresponse,,,,,,
null,null,audio-keyboard-response,54,4710375,0.0-16.0-37.0,17,tonic Bb4,2024-06-01 12:02:17,d6d641a8381b51745ea9a774607a039e,195.89.182.86,"Mozilla/5.0 (Windows NT 10.0; Win64; x64) AppleWebKit/537.36 (KHTML, like Gecko) Chrome/125.0.0.0 Safari/537.36",WebKit,Chrome,125.0.0.0,Windows,10.0,https://app.prolific.com/,"en-GB,en-US;q=0.9,en;q=0.8",87o3mz,"[""exposure_4s_6.mp3""]",exposure,,exp_noresponse,,,,,,
null,null,audio-keyboard-response,55,4733393,0.0-16.0-38.0,17,tonic Bb4,2024-06-01 12:02:17,d6d641a8381b51745ea9a774607a039e,195.89.182.86,"Mozilla/5.0 (Windows NT 10.0; Win64; x64) AppleWebKit/537.36 (KHTML, like Gecko) Chrome/125.0.0.0 Safari/537.36",WebKit,Chrome,125.0.0.0,Windows,10.0,https://app.prolific.com/,"en-GB,en-US;q=0.9,en;q=0.8",87o3mz,"[""exposure_4s_25.mp3""]",exposure,,exp_noresponse,,,,,,
null,null,audio-keyboard-response,56,4756912,0.0-16.0-39.0,17,tonic Bb4,2024-06-01 12:02:17,d6d641a8381b51745ea9a774607a039e,195.89.182.86,"Mozilla/5.0 (Windows NT 10.0; Win64; x64) AppleWebKit/537.36 (KHTML, like Gecko) Chrome/125.0.0.0 Safari/537.36",WebKit,Chrome,125.0.0.0,Windows,10.0,https://app.prolific.com/,"en-GB,en-US;q=0.9,en;q=0.8",87o3mz,"[""exposure_4s_38.mp3""]",exposure,,exp_noresponse,,,,,,
74411,1,audio-button-response,57,4831323,0.0-16.0-40.0,17,tonic Bb4,2024-06-01 12:02:17,d6d641a8381b51745ea9a774607a039e,195.89.182.86,"Mozilla/5.0 (Windows NT 10.0; Win64; x64) AppleWebKit/537.36 (KHTML, like Gecko) Chrome/125.0.0.0 Safari/537.36",WebKit,Chrome,125.0.0.0,Windows,10.0,https://app.prolific.com/,"en-GB,en-US;q=0.9,en;q=0.8",87o3mz,attn_length_hard_1.mp3,exposure,true,attncheck,,,,,,
8629,1,audio-button-response,58,4840108,0.0-16.0-41.0,17,tonic Bb4,2024-06-01 12:02:17,d6d641a8381b51745ea9a774607a039e,195.89.182.86,"Mozilla/5.0 (Windows NT 10.0; Win64; x64) AppleWebKit/537.36 (KHTML, like Gecko) Chrome/125.0.0.0 Safari/537.36",WebKit,Chrome,125.0.0.0,Windows,10.0,https://app.prolific.com/,"en-GB,en-US;q=0.9,en;q=0.8",87o3mz,attn_length_easy_1.mp3,exposure,true,attncheck,,,,,,
18989,1,audio-button-response,59,4859096,0.0-16.0-42.0,17,tonic Bb4,2024-06-01 12:02:17,d6d641a8381b51745ea9a774607a039e,195.89.182.86,"Mozilla/5.0 (Windows NT 10.0; Win64; x64) AppleWebKit/537.36 (KHTML, like Gecko) Chrome/125.0.0.0 Safari/537.36",WebKit,Chrome,125.0.0.0,Windows,10.0,https://app.prolific.com/,"en-GB,en-US;q=0.9,en;q=0.8",87o3mz,attn_length_hard_1.mp3,exposure,true,attncheck,,,,,,
null,null,audio-keyboard-response,60,4882103,0.0-16.0-43.0,17,tonic Bb4,2024-06-01 12:02:17,d6d641a8381b51745ea9a774607a039e,195.89.182.86,"Mozilla/5.0 (Windows NT 10.0; Win64; x64) AppleWebKit/537.36 (KHTML, like Gecko) Chrome/125.0.0.0 Safari/537.36",WebKit,Chrome,125.0.0.0,Windows,10.0,https://app.prolific.com/,"en-GB,en-US;q=0.9,en;q=0.8",87o3mz,"[""exposure_4s_24.mp3""]",exposure,,exp_noresponse,,,,,,
null,null,audio-keyboard-response,61,4905117,0.0-16.0-44.0,17,tonic Bb4,2024-06-01 12:02:17,d6d641a8381b51745ea9a774607a039e,195.89.182.86,"Mozilla/5.0 (Windows NT 10.0; Win64; x64) AppleWebKit/537.36 (KHTML, like Gecko) Chrome/125.0.0.0 Safari/537.36",WebKit,Chrome,125.0.0.0,Windows,10.0,https://app.prolific.com/,"en-GB,en-US;q=0.9,en;q=0.8",87o3mz,"[""exposure_4s_35.mp3""]",exposure,,exp_noresponse,,,,,,
null,null,audio-keyboard-response,62,4928549,0.0-16.0-45.0,17,tonic Bb4,2024-06-01 12:02:17,d6d641a8381b51745ea9a774607a039e,195.89.182.86,"Mozilla/5.0 (Windows NT 10.0; Win64; x64) AppleWebKit/537.36 (KHTML, like Gecko) Chrome/125.0.0.0 Safari/537.36",WebKit,Chrome,125.0.0.0,Windows,10.0,https://app.prolific.com/,"en-GB,en-US;q=0.9,en;q=0.8",87o3mz,"[""exposure_4s_19.mp3""]",exposure,,exp_noresponse,,,,,,
null,null,audio-keyboard-response,63,4952022,0.0-16.0-46.0,17,tonic Bb4,2024-06-01 12:02:17,d6d641a8381b51745ea9a774607a039e,195.89.182.86,"Mozilla/5.0 (Windows NT 10.0; Win64; x64) AppleWebKit/537.36 (KHTML, like Gecko) Chrome/125.0.0.0 Safari/537.36",WebKit,Chrome,125.0.0.0,Windows,10.0,https://app.prolific.com/,"en-GB,en-US;q=0.9,en;q=0.8",87o3mz,"[""exposure_4s_10.mp3""]",exposure,,exp_noresponse,,,,,,
null,null,audio-keyboard-response,64,4975521,0.0-16.0-47.0,17,tonic Bb4,2024-06-01 12:02:17,d6d641a8381b51745ea9a774607a039e,195.89.182.86,"Mozilla/5.0 (Windows NT 10.0; Win64; x64) AppleWebKit/537.36 (KHTML, like Gecko) Chrome/125.0.0.0 Safari/537.36",WebKit,Chrome,125.0.0.0,Windows,10.0,https://app.prolific.com/,"en-GB,en-US;q=0.9,en;q=0.8",87o3mz,"[""exposure_4s_31.mp3""]",exposure,,exp_noresponse,,,,,,
null,null,audio-keyboard-response,65,4998542,0.0-16.0-48.0,17,tonic Bb4,2024-06-01 12:02:17,d6d641a8381b51745ea9a774607a039e,195.89.182.86,"Mozilla/5.0 (Windows NT 10.0; Win64; x64) AppleWebKit/537.36 (KHTML, like Gecko) Chrome/125.0.0.0 Safari/537.36",WebKit,Chrome,125.0.0.0,Windows,10.0,https://app.prolific.com/,"en-GB,en-US;q=0.9,en;q=0.8",87o3mz,"[""exposure_4s_1.mp3""]",exposure,,exp_noresponse,,,,,,
null,null,audio-keyboard-response,66,5022049,0.0-16.0-49.0,17,tonic Bb4,2024-06-01 12:02:17,d6d641a8381b51745ea9a774607a039e,195.89.182.86,"Mozilla/5.0 (Windows NT 10.0; Win64; x64) AppleWebKit/537.36 (KHTML, like Gecko) Chrome/125.0.0.0 Safari/537.36",WebKit,Chrome,125.0.0.0,Windows,10.0,https://app.prolific.com/,"en-GB,en-US;q=0.9,en;q=0.8",87o3mz,"[""exposure_4s_15.mp3""]",exposure,,exp_noresponse,,,,,,
null,null,audio-keyboard-response,67,5045061,0.0-16.0-50.0,17,tonic Bb4,2024-06-01 12:02:17,d6d641a8381b51745ea9a774607a039e,195.89.182.86,"Mozilla/5.0 (Windows NT 10.0; Win64; x64) AppleWebKit/537.36 (KHTML, like Gecko) Chrome/125.0.0.0 Safari/537.36",WebKit,Chrome,125.0.0.0,Windows,10.0,https://app.prolific.com/,"en-GB,en-US;q=0.9,en;q=0.8",87o3mz,"[""exposure_4s_16.mp3""]",exposure,,exp_noresponse,,,,,,
null,null,audio-keyboard-response,68,5068081,0.0-16.0-51.0,17,tonic Bb4,2024-06-01 12:02:17,d6d641a8381b51745ea9a774607a039e,195.89.182.86,"Mozilla/5.0 (Windows NT 10.0; Win64; x64) AppleWebKit/537.36 (KHTML, like Gecko) Chrome/125.0.0.0 Safari/537.36",WebKit,Chrome,125.0.0.0,Windows,10.0,https://app.prolific.com/,"en-GB,en-US;q=0.9,en;q=0.8",87o3mz,"[""exposure_4s_19.mp3""]",exposure,,exp_noresponse,,,,,,
7411,1,audio-button-response,69,5075769,0.0-16.0-52.0,17,tonic Bb4,2024-06-01 12:02:17,d6d641a8381b51745ea9a774607a039e,195.89.182.86,"Mozilla/5.0 (Windows NT 10.0; Win64; x64) AppleWebKit/537.36 (KHTML, like Gecko) Chrome/125.0.0.0 Safari/537.36",WebKit,Chrome,125.0.0.0,Windows,10.0,https://app.prolific.com/,"en-GB,en-US;q=0.9,en;q=0.8",87o3mz,attn_length_int_1.mp3,exposure,true,attncheck,,,,,,
8032,1,audio-button-response,70,5083811,0.0-16.0-53.0,17,tonic Bb4,2024-06-01 12:02:17,d6d641a8381b51745ea9a774607a039e,195.89.182.86,"Mozilla/5.0 (Windows NT 10.0; Win64; x64) AppleWebKit/537.36 (KHTML, like Gecko) Chrome/125.0.0.0 Safari/537.36",WebKit,Chrome,125.0.0.0,Windows,10.0,https://app.prolific.com/,"en-GB,en-US;q=0.9,en;q=0.8",87o3mz,attn_length_easy_1.mp3,exposure,true,attncheck,,,,,,
null,null,audio-keyboard-response,71,5106825,0.0-16.0-54.0,17,tonic Bb4,2024-06-01 12:02:17,d6d641a8381b51745ea9a774607a039e,195.89.182.86,"Mozilla/5.0 (Windows NT 10.0; Win64; x64) AppleWebKit/537.36 (KHTML, like Gecko) Chrome/125.0.0.0 Safari/537.36",WebKit,Chrome,125.0.0.0,Windows,10.0,https://app.prolific.com/,"en-GB,en-US;q=0.9,en;q=0.8",87o3mz,"[""exposure_4s_44.mp3""]",exposure,,exp_noresponse,,,,,,
156080,1,audio-button-response,72,5262899,0.0-16.0-55.0,17,tonic Bb4,2024-06-01 12:02:17,d6d641a8381b51745ea9a774607a039e,195.89.182.86,"Mozilla/5.0 (Windows NT 10.0; Win64; x64) AppleWebKit/537.36 (KHTML, like Gecko) Chrome/125.0.0.0 Safari/537.36",WebKit,Chrome,125.0.0.0,Windows,10.0,https://app.prolific.com/,"en-GB,en-US;q=0.9,en;q=0.8",87o3mz,attn_length_easy_1.mp3,exposure,true,attncheck,,,,,,
null,null,audio-keyboard-response,73,5286347,0.0-16.0-56.0,17,tonic Bb4,2024-06-01 12:02:17,d6d641a8381b51745ea9a774607a039e,195.89.182.86,"Mozilla/5.0 (Windows NT 10.0; Win64; x64) AppleWebKit/537.36 (KHTML, like Gecko) Chrome/125.0.0.0 Safari/537.36",WebKit,Chrome,125.0.0.0,Windows,10.0,https://app.prolific.com/,"en-GB,en-US;q=0.9,en;q=0.8",87o3mz,"[""exposure_4s_32.mp3""]",exposure,,exp_noresponse,,,,,,
null,null,audio-keyboard-response,74,5309782,0.0-16.0-57.0,17,tonic Bb4,2024-06-01 12:02:17,d6d641a8381b51745ea9a774607a039e,195.89.182.86,"Mozilla/5.0 (Windows NT 10.0; Win64; x64) AppleWebKit/537.36 (KHTML, like Gecko) Chrome/125.0.0.0 Safari/537.36",WebKit,Chrome,125.0.0.0,Windows,10.0,https://app.prolific.com/,"en-GB,en-US;q=0.9,en;q=0.8",87o3mz,"[""exposure_4s_21.mp3""]",exposure,,exp_noresponse,,,,,,
null,null,audio-keyboard-response,75,5332794,0.0-16.0-58.0,17,tonic Bb4,2024-06-01 12:02:17,d6d641a8381b51745ea9a774607a039e,195.89.182.86,"Mozilla/5.0 (Windows NT 10.0; Win64; x64) AppleWebKit/537.36 (KHTML, like Gecko) Chrome/125.0.0.0 Safari/537.36",WebKit,Chrome,125.0.0.0,Windows,10.0,https://app.prolific.com/,"en-GB,en-US;q=0.9,en;q=0.8",87o3mz,"[""exposure_4s_14.mp3""]",exposure,,exp_noresponse,,,,,,
null,null,audio-keyboard-response,76,5356270,0.0-16.0-59.0,17,tonic Bb4,2024-06-01 12:02:17,d6d641a8381b51745ea9a774607a039e,195.89.182.86,"Mozilla/5.0 (Windows NT 10.0; Win64; x64) AppleWebKit/537.36 (KHTML, like Gecko) Chrome/125.0.0.0 Safari/537.36",WebKit,Chrome,125.0.0.0,Windows,10.0,https://app.prolific.com/,"en-GB,en-US;q=0.9,en;q=0.8",87o3mz,"[""exposure_4s_9.mp3""]",exposure,,exp_noresponse,,,,,,
91695, ,html-keyboard-response,77,5447971,0.0-17.0,17,tonic Bb4,2024-06-01 12:02:17,d6d641a8381b51745ea9a774607a039e,195.89.182.86,"Mozilla/5.0 (Windows NT 10.0; Win64; x64) AppleWebKit/537.36 (KHTML, like Gecko) Chrome/125.0.0.0 Safari/537.36",WebKit,Chrome,125.0.0.0,Windows,10.0,https://app.prolific.com/,"en-GB,en-US;q=0.9,en;q=0.8",87o3mz,"<p>You will now be asked to judge how similar some melodies are to what you have
    just listened to. </p>
    <p><b>Press the space bar to continue.</b></p>",,,,,,,,,
3929, ,html-keyboard-response,78,5451903,0.0-18.0,17,tonic Bb4,2024-06-01 12:02:17,d6d641a8381b51745ea9a774607a039e,195.89.182.86,"Mozilla/5.0 (Windows NT 10.0; Win64; x64) AppleWebKit/537.36 (KHTML, like Gecko) Chrome/125.0.0.0 Safari/537.36",WebKit,Chrome,125.0.0.0,Windows,10.0,https://app.prolific.com/,"en-GB,en-US;q=0.9,en;q=0.8",87o3mz,"<p>The changes in the melodies are subtle. If you are not sure, go with your gut feeling.</p>
    <p><b>Press the space bar to continue.</b></p>",,,,,,,,,
7360,7,audio-slider-response,79,5459671,0.0-19.0-0.0,17,tonic Bb4,2024-06-01 12:02:17,d6d641a8381b51745ea9a774607a039e,195.89.182.86,"Mozilla/5.0 (Windows NT 10.0; Win64; x64) AppleWebKit/537.36 (KHTML, like Gecko) Chrome/125.0.0.0 Safari/537.36",WebKit,Chrome,125.0.0.0,Windows,10.0,https://app.prolific.com/,"en-GB,en-US;q=0.9,en;q=0.8",87o3mz,grammatical_3.mp3,grammar_learning,,,4,,,,,
8472,5,audio-slider-response,80,5468340,0.0-19.0-0.1,17,tonic Bb4,2024-06-01 12:02:17,d6d641a8381b51745ea9a774607a039e,195.89.182.86,"Mozilla/5.0 (Windows NT 10.0; Win64; x64) AppleWebKit/537.36 (KHTML, like Gecko) Chrome/125.0.0.0 Safari/537.36",WebKit,Chrome,125.0.0.0,Windows,10.0,https://app.prolific.com/,"en-GB,en-US;q=0.9,en;q=0.8",87o3mz,grammatical_4.mp3,grammar_learning,,,4,,,,,
7960,2,audio-slider-response,81,5476816,0.0-19.0-0.2,17,tonic Bb4,2024-06-01 12:02:17,d6d641a8381b51745ea9a774607a039e,195.89.182.86,"Mozilla/5.0 (Windows NT 10.0; Win64; x64) AppleWebKit/537.36 (KHTML, like Gecko) Chrome/125.0.0.0 Safari/537.36",WebKit,Chrome,125.0.0.0,Windows,10.0,https://app.prolific.com/,"en-GB,en-US;q=0.9,en;q=0.8",87o3mz,agrammatical_2.mp3,grammar_learning,,,4,,,,,
7600,7,audio-slider-response,82,5484428,0.0-19.0-0.3,17,tonic Bb4,2024-06-01 12:02:17,d6d641a8381b51745ea9a774607a039e,195.89.182.86,"Mozilla/5.0 (Windows NT 10.0; Win64; x64) AppleWebKit/537.36 (KHTML, like Gecko) Chrome/125.0.0.0 Safari/537.36",WebKit,Chrome,125.0.0.0,Windows,10.0,https://app.prolific.com/,"en-GB,en-US;q=0.9,en;q=0.8",87o3mz,grammatical_2.mp3,grammar_learning,,,4,,,,,
5560,3,audio-slider-response,83,5489994,0.0-19.0-0.4,17,tonic Bb4,2024-06-01 12:02:17,d6d641a8381b51745ea9a774607a039e,195.89.182.86,"Mozilla/5.0 (Windows NT 10.0; Win64; x64) AppleWebKit/537.36 (KHTML, like Gecko) Chrome/125.0.0.0 Safari/537.36",WebKit,Chrome,125.0.0.0,Windows,10.0,https://app.prolific.com/,"en-GB,en-US;q=0.9,en;q=0.8",87o3mz,grammatical_1.mp3,grammar_learning,,,4,,,,,
8061,2,audio-slider-response,84,5498253,0.0-19.0-0.5,17,tonic Bb4,2024-06-01 12:02:17,d6d641a8381b51745ea9a774607a039e,195.89.182.86,"Mozilla/5.0 (Windows NT 10.0; Win64; x64) AppleWebKit/537.36 (KHTML, like Gecko) Chrome/125.0.0.0 Safari/537.36",WebKit,Chrome,125.0.0.0,Windows,10.0,https://app.prolific.com/,"en-GB,en-US;q=0.9,en;q=0.8",87o3mz,agrammatical_7.mp3,grammar_learning,,,4,,,,,
7141,7,audio-slider-response,85,5505574,0.0-19.0-0.6,17,tonic Bb4,2024-06-01 12:02:17,d6d641a8381b51745ea9a774607a039e,195.89.182.86,"Mozilla/5.0 (Windows NT 10.0; Win64; x64) AppleWebKit/537.36 (KHTML, like Gecko) Chrome/125.0.0.0 Safari/537.36",WebKit,Chrome,125.0.0.0,Windows,10.0,https://app.prolific.com/,"en-GB,en-US;q=0.9,en;q=0.8",87o3mz,grammatical_8.mp3,grammar_learning,,,4,,,,,
4680,4,audio-slider-response,86,5510443,0.0-19.0-0.7,17,tonic Bb4,2024-06-01 12:02:17,d6d641a8381b51745ea9a774607a039e,195.89.182.86,"Mozilla/5.0 (Windows NT 10.0; Win64; x64) AppleWebKit/537.36 (KHTML, like Gecko) Chrome/125.0.0.0 Safari/537.36",WebKit,Chrome,125.0.0.0,Windows,10.0,https://app.prolific.com/,"en-GB,en-US;q=0.9,en;q=0.8",87o3mz,grammatical_7.mp3,grammar_learning,,,4,,,,,
6520,5,audio-slider-response,87,5517136,0.0-19.0-0.8,17,tonic Bb4,2024-06-01 12:02:17,d6d641a8381b51745ea9a774607a039e,195.89.182.86,"Mozilla/5.0 (Windows NT 10.0; Win64; x64) AppleWebKit/537.36 (KHTML, like Gecko) Chrome/125.0.0.0 Safari/537.36",WebKit,Chrome,125.0.0.0,Windows,10.0,https://app.prolific.com/,"en-GB,en-US;q=0.9,en;q=0.8",87o3mz,grammatical_6.mp3,grammar_learning,,,4,,,,,
930349,6,audio-slider-response,88,6449864,0.0-19.0-0.9,17,tonic Bb4,2024-06-01 12:02:17,d6d641a8381b51745ea9a774607a039e,195.89.182.86,"Mozilla/5.0 (Windows NT 10.0; Win64; x64) AppleWebKit/537.36 (KHTML, like Gecko) Chrome/125.0.0.0 Safari/537.36",WebKit,Chrome,125.0.0.0,Windows,10.0,https://app.prolific.com/,"en-GB,en-US;q=0.9,en;q=0.8",87o3mz,grammatical_5.mp3,grammar_learning,,,4,,,,,
5349,2,audio-slider-response,89,6456211,0.0-19.0-0.10,17,tonic Bb4,2024-06-01 12:02:17,d6d641a8381b51745ea9a774607a039e,195.89.182.86,"Mozilla/5.0 (Windows NT 10.0; Win64; x64) AppleWebKit/537.36 (KHTML, like Gecko) Chrome/125.0.0.0 Safari/537.36",WebKit,Chrome,125.0.0.0,Windows,10.0,https://app.prolific.com/,"en-GB,en-US;q=0.9,en;q=0.8",87o3mz,agrammatical_5.mp3,grammar_learning,,,4,,,,,
5749,1,audio-slider-response,90,6462145,0.0-19.0-0.11,17,tonic Bb4,2024-06-01 12:02:17,d6d641a8381b51745ea9a774607a039e,195.89.182.86,"Mozilla/5.0 (Windows NT 10.0; Win64; x64) AppleWebKit/537.36 (KHTML, like Gecko) Chrome/125.0.0.0 Safari/537.36",WebKit,Chrome,125.0.0.0,Windows,10.0,https://app.prolific.com/,"en-GB,en-US;q=0.9,en;q=0.8",87o3mz,agrammatical_4.mp3,grammar_learning,,,4,,,,,
5611,3,audio-slider-response,91,6467944,0.0-19.0-0.12,17,tonic Bb4,2024-06-01 12:02:17,d6d641a8381b51745ea9a774607a039e,195.89.182.86,"Mozilla/5.0 (Windows NT 10.0; Win64; x64) AppleWebKit/537.36 (KHTML, like Gecko) Chrome/125.0.0.0 Safari/537.36",WebKit,Chrome,125.0.0.0,Windows,10.0,https://app.prolific.com/,"en-GB,en-US;q=0.9,en;q=0.8",87o3mz,agrammatical_1.mp3,grammar_learning,,,4,,,,,
4912,4,audio-slider-response,92,6473043,0.0-19.0-0.13,17,tonic Bb4,2024-06-01 12:02:17,d6d641a8381b51745ea9a774607a039e,195.89.182.86,"Mozilla/5.0 (Windows NT 10.0; Win64; x64) AppleWebKit/537.36 (KHTML, like Gecko) Chrome/125.0.0.0 Safari/537.36",WebKit,Chrome,125.0.0.0,Windows,10.0,https://app.prolific.com/,"en-GB,en-US;q=0.9,en;q=0.8",87o3mz,agrammatical_8.mp3,grammar_learning,,,4,,,,,
5819,5,audio-slider-response,93,6479005,0.0-19.0-0.14,17,tonic Bb4,2024-06-01 12:02:17,d6d641a8381b51745ea9a774607a039e,195.89.182.86,"Mozilla/5.0 (Windows NT 10.0; Win64; x64) AppleWebKit/537.36 (KHTML, like Gecko) Chrome/125.0.0.0 Safari/537.36",WebKit,Chrome,125.0.0.0,Windows,10.0,https://app.prolific.com/,"en-GB,en-US;q=0.9,en;q=0.8",87o3mz,agrammatical_3.mp3,grammar_learning,,,4,,,,,
6120,2,audio-slider-response,94,6485318,0.0-19.0-0.15,17,tonic Bb4,2024-06-01 12:02:17,d6d641a8381b51745ea9a774607a039e,195.89.182.86,"Mozilla/5.0 (Windows NT 10.0; Win64; x64) AppleWebKit/537.36 (KHTML, like Gecko) Chrome/125.0.0.0 Safari/537.36",WebKit,Chrome,125.0.0.0,Windows,10.0,https://app.prolific.com/,"en-GB,en-US;q=0.9,en;q=0.8",87o3mz,agrammatical_6.mp3,grammar_learning,,,4,,,,,
45075,"{""prolific_id"":""I tried mainly to hear whether or not there were minor notes in any of the places and in general the progression of the melody whether it was ascending or descending. ""}",survey-html-form,95,6530400,0.0-20.0,17,tonic Bb4,2024-06-01 12:02:17,d6d641a8381b51745ea9a774607a039e,195.89.182.86,"Mozilla/5.0 (Windows NT 10.0; Win64; x64) AppleWebKit/537.36 (KHTML, like Gecko) Chrome/125.0.0.0 Safari/537.36",WebKit,Chrome,125.0.0.0,Windows,10.0,https://app.prolific.com/,"en-GB,en-US;q=0.9,en;q=0.8",87o3mz,,,,,,,,,,
2067, ,html-keyboard-response,96,6532471,0.0-21.0,17,tonic Bb4,2024-06-01 12:02:17,d6d641a8381b51745ea9a774607a039e,195.89.182.86,"Mozilla/5.0 (Windows NT 10.0; Win64; x64) AppleWebKit/537.36 (KHTML, like Gecko) Chrome/125.0.0.0 Safari/537.36",WebKit,Chrome,125.0.0.0,Windows,10.0,https://app.prolific.com/,"en-GB,en-US;q=0.9,en;q=0.8",87o3mz,"<p>In this part of the experiment, you will presented with two melodies in succession. 
    <p><b>Press the space bar to continue.</b></p>",,,,,,,,,
3425, ,html-keyboard-response,97,6535899,0.0-22.0,17,tonic Bb4,2024-06-01 12:02:17,d6d641a8381b51745ea9a774607a039e,195.89.182.86,"Mozilla/5.0 (Windows NT 10.0; Win64; x64) AppleWebKit/537.36 (KHTML, like Gecko) Chrome/125.0.0.0 Safari/537.36",WebKit,Chrome,125.0.0.0,Windows,10.0,https://app.prolific.com/,"en-GB,en-US;q=0.9,en;q=0.8",87o3mz,"<p>The melodies are nearly identical, but have either an added accent or one different note. </p>
    <p><b>Press the space bar to continue.</b></p>",,,,,,,,,
1032, ,html-keyboard-response,98,6536936,0.0-23.0,17,tonic Bb4,2024-06-01 12:02:17,d6d641a8381b51745ea9a774607a039e,195.89.182.86,"Mozilla/5.0 (Windows NT 10.0; Win64; x64) AppleWebKit/537.36 (KHTML, like Gecko) Chrome/125.0.0.0 Safari/537.36",WebKit,Chrome,125.0.0.0,Windows,10.0,https://app.prolific.com/,"en-GB,en-US;q=0.9,en;q=0.8",87o3mz,"<p>    Please choose the melody that <b>sounds better to you.</b></p>
    <p><b>Press the space bar to continue.</b></p>",,,,,,,,,
3506, ,html-keyboard-response,99,6540445,0.0-24.0,17,tonic Bb4,2024-06-01 12:02:17,d6d641a8381b51745ea9a774607a039e,195.89.182.86,"Mozilla/5.0 (Windows NT 10.0; Win64; x64) AppleWebKit/537.36 (KHTML, like Gecko) Chrome/125.0.0.0 Safari/537.36",WebKit,Chrome,125.0.0.0,Windows,10.0,https://app.prolific.com/,"en-GB,en-US;q=0.9,en;q=0.8",87o3mz,There are <b>32 questions</b> in this section.,,,,,,,,,
7720,j,audio-keyboard-response,100,6548517,0.0-25.0-0.0,17,tonic Bb4,2024-06-01 12:02:17,d6d641a8381b51745ea9a774607a039e,195.89.182.86,"Mozilla/5.0 (Windows NT 10.0; Win64; x64) AppleWebKit/537.36 (KHTML, like Gecko) Chrome/125.0.0.0 Safari/537.36",WebKit,Chrome,125.0.0.0,Windows,10.0,https://app.prolific.com/,"en-GB,en-US;q=0.9,en;q=0.8",87o3mz,fc_IC_accent_5_1.mp3,forced_choice,,,,NA,j,false,true,
5981,j,audio-keyboard-response,101,6554679,0.0-25.0-0.1,17,tonic Bb4,2024-06-01 12:02:17,d6d641a8381b51745ea9a774607a039e,195.89.182.86,"Mozilla/5.0 (Windows NT 10.0; Win64; x64) AppleWebKit/537.36 (KHTML, like Gecko) Chrome/125.0.0.0 Safari/537.36",WebKit,Chrome,125.0.0.0,Windows,10.0,https://app.prolific.com/,"en-GB,en-US;q=0.9,en;q=0.8",87o3mz,fc_IC_accent_3_1.mp3,forced_choice,,,,NA,f,false,false,
5840,j,audio-keyboard-response,102,6560707,0.0-25.0-0.2,17,tonic Bb4,2024-06-01 12:02:17,d6d641a8381b51745ea9a774607a039e,195.89.182.86,"Mozilla/5.0 (Windows NT 10.0; Win64; x64) AppleWebKit/537.36 (KHTML, like Gecko) Chrome/125.0.0.0 Safari/537.36",WebKit,Chrome,125.0.0.0,Windows,10.0,https://app.prolific.com/,"en-GB,en-US;q=0.9,en;q=0.8",87o3mz,fc_accents_34_2.mp3,forced_choice,,,,j,NA,true,false,
6901,j,audio-keyboard-response,103,6567754,0.0-25.0-0.3,17,tonic Bb4,2024-06-01 12:02:17,d6d641a8381b51745ea9a774607a039e,195.89.182.86,"Mozilla/5.0 (Windows NT 10.0; Win64; x64) AppleWebKit/537.36 (KHTML, like Gecko) Chrome/125.0.0.0 Safari/537.36",WebKit,Chrome,125.0.0.0,Windows,10.0,https://app.prolific.com/,"en-GB,en-US;q=0.9,en;q=0.8",87o3mz,fc_accents_54_2.mp3,forced_choice,,,,j,NA,true,false,
7261,f,audio-keyboard-response,104,6575441,0.0-25.0-0.4,17,tonic Bb4,2024-06-01 12:02:17,d6d641a8381b51745ea9a774607a039e,195.89.182.86,"Mozilla/5.0 (Windows NT 10.0; Win64; x64) AppleWebKit/537.36 (KHTML, like Gecko) Chrome/125.0.0.0 Safari/537.36",WebKit,Chrome,125.0.0.0,Windows,10.0,https://app.prolific.com/,"en-GB,en-US;q=0.9,en;q=0.8",87o3mz,fc_accents_34_1.mp3,forced_choice,,,,j,NA,false,false,
6509,j,audio-keyboard-response,105,6582148,0.0-25.0-0.5,17,tonic Bb4,2024-06-01 12:02:17,d6d641a8381b51745ea9a774607a039e,195.89.182.86,"Mozilla/5.0 (Windows NT 10.0; Win64; x64) AppleWebKit/537.36 (KHTML, like Gecko) Chrome/125.0.0.0 Safari/537.36",WebKit,Chrome,125.0.0.0,Windows,10.0,https://app.prolific.com/,"en-GB,en-US;q=0.9,en;q=0.8",87o3mz,fc_IC_accent_5_4.mp3,forced_choice,,,,NA,j,false,true,
5800,f,audio-keyboard-response,106,6587950,0.0-25.0-0.6,17,tonic Bb4,2024-06-01 12:02:17,d6d641a8381b51745ea9a774607a039e,195.89.182.86,"Mozilla/5.0 (Windows NT 10.0; Win64; x64) AppleWebKit/537.36 (KHTML, like Gecko) Chrome/125.0.0.0 Safari/537.36",WebKit,Chrome,125.0.0.0,Windows,10.0,https://app.prolific.com/,"en-GB,en-US;q=0.9,en;q=0.8",87o3mz,fc_accents_32_1.mp3,forced_choice,,,,j,NA,false,false,
5571,j,audio-keyboard-response,107,6593723,0.0-25.0-0.7,17,tonic Bb4,2024-06-01 12:02:17,d6d641a8381b51745ea9a774607a039e,195.89.182.86,"Mozilla/5.0 (Windows NT 10.0; Win64; x64) AppleWebKit/537.36 (KHTML, like Gecko) Chrome/125.0.0.0 Safari/537.36",WebKit,Chrome,125.0.0.0,Windows,10.0,https://app.prolific.com/,"en-GB,en-US;q=0.9,en;q=0.8",87o3mz,fc_accents_32_3.mp3,forced_choice,,,,j,NA,true,false,
6499,j,audio-keyboard-response,108,6600419,0.0-25.0-0.8,17,tonic Bb4,2024-06-01 12:02:17,d6d641a8381b51745ea9a774607a039e,195.89.182.86,"Mozilla/5.0 (Windows NT 10.0; Win64; x64) AppleWebKit/537.36 (KHTML, like Gecko) Chrome/125.0.0.0 Safari/537.36",WebKit,Chrome,125.0.0.0,Windows,10.0,https://app.prolific.com/,"en-GB,en-US;q=0.9,en;q=0.8",87o3mz,fc_IC_accent_3_2.mp3,forced_choice,,,,NA,f,false,false,
7309,j,audio-keyboard-response,109,6607895,0.0-25.0-0.9,17,tonic Bb4,2024-06-01 12:02:17,d6d641a8381b51745ea9a774607a039e,195.89.182.86,"Mozilla/5.0 (Windows NT 10.0; Win64; x64) AppleWebKit/537.36 (KHTML, like Gecko) Chrome/125.0.0.0 Safari/537.36",WebKit,Chrome,125.0.0.0,Windows,10.0,https://app.prolific.com/,"en-GB,en-US;q=0.9,en;q=0.8",87o3mz,fc_IC_default_5_1.mp3,forced_choice,,,,NA,j,false,true,
6131,j,audio-keyboard-response,110,6614269,0.0-25.0-0.10,17,tonic Bb4,2024-06-01 12:02:17,d6d641a8381b51745ea9a774607a039e,195.89.182.86,"Mozilla/5.0 (Windows NT 10.0; Win64; x64) AppleWebKit/537.36 (KHTML, like Gecko) Chrome/125.0.0.0 Safari/537.36",WebKit,Chrome,125.0.0.0,Windows,10.0,https://app.prolific.com/,"en-GB,en-US;q=0.9,en;q=0.8",87o3mz,fc_IC_default_5_3.mp3,forced_choice,,,,NA,j,false,true,
6971,j,audio-keyboard-response,111,6621434,0.0-25.0-0.11,17,tonic Bb4,2024-06-01 12:02:17,d6d641a8381b51745ea9a774607a039e,195.89.182.86,"Mozilla/5.0 (Windows NT 10.0; Win64; x64) AppleWebKit/537.36 (KHTML, like Gecko) Chrome/125.0.0.0 Safari/537.36",WebKit,Chrome,125.0.0.0,Windows,10.0,https://app.prolific.com/,"en-GB,en-US;q=0.9,en;q=0.8",87o3mz,fc_accents_54_1.mp3,forced_choice,,,,j,NA,true,false,
7779,f,audio-keyboard-response,112,6629210,0.0-25.0-0.12,17,tonic Bb4,2024-06-01 12:02:17,d6d641a8381b51745ea9a774607a039e,195.89.182.86,"Mozilla/5.0 (Windows NT 10.0; Win64; x64) AppleWebKit/537.36 (KHTML, like Gecko) Chrome/125.0.0.0 Safari/537.36",WebKit,Chrome,125.0.0.0,Windows,10.0,https://app.prolific.com/,"en-GB,en-US;q=0.9,en;q=0.8",87o3mz,fc_accents_54_4.mp3,forced_choice,,,,j,NA,false,false,
5901,f,audio-keyboard-response,113,6635312,0.0-25.0-0.13,17,tonic Bb4,2024-06-01 12:02:17,d6d641a8381b51745ea9a774607a039e,195.89.182.86,"Mozilla/5.0 (Windows NT 10.0; Win64; x64) AppleWebKit/537.36 (KHTML, like Gecko) Chrome/125.0.0.0 Safari/537.36",WebKit,Chrome,125.0.0.0,Windows,10.0,https://app.prolific.com/,"en-GB,en-US;q=0.9,en;q=0.8",87o3mz,fc_IC_default_3_3.mp3,forced_choice,,,,NA,f,false,true,
6909,f,audio-keyboard-response,114,6642414,0.0-25.0-0.14,17,tonic Bb4,2024-06-01 12:02:17,d6d641a8381b51745ea9a774607a039e,195.89.182.86,"Mozilla/5.0 (Windows NT 10.0; Win64; x64) AppleWebKit/537.36 (KHTML, like Gecko) Chrome/125.0.0.0 Safari/537.36",WebKit,Chrome,125.0.0.0,Windows,10.0,https://app.prolific.com/,"en-GB,en-US;q=0.9,en;q=0.8",87o3mz,fc_IC_default_3_1.mp3,forced_choice,,,,NA,f,false,true,
6701,f,audio-keyboard-response,115,6649310,0.0-25.0-0.15,17,tonic Bb4,2024-06-01 12:02:17,d6d641a8381b51745ea9a774607a039e,195.89.182.86,"Mozilla/5.0 (Windows NT 10.0; Win64; x64) AppleWebKit/537.36 (KHTML, like Gecko) Chrome/125.0.0.0 Safari/537.36",WebKit,Chrome,125.0.0.0,Windows,10.0,https://app.prolific.com/,"en-GB,en-US;q=0.9,en;q=0.8",87o3mz,fc_accents_32_2.mp3,forced_choice,,,,j,NA,false,false,
5611,f,audio-keyboard-response,116,6655542,0.0-25.0-0.16,17,tonic Bb4,2024-06-01 12:02:17,d6d641a8381b51745ea9a774607a039e,195.89.182.86,"Mozilla/5.0 (Windows NT 10.0; Win64; x64) AppleWebKit/537.36 (KHTML, like Gecko) Chrome/125.0.0.0 Safari/537.36",WebKit,Chrome,125.0.0.0,Windows,10.0,https://app.prolific.com/,"en-GB,en-US;q=0.9,en;q=0.8",87o3mz,fc_IC_accent_3_4.mp3,forced_choice,,,,NA,f,false,true,
7181,f,audio-keyboard-response,117,6662721,0.0-25.0-0.17,17,tonic Bb4,2024-06-01 12:02:17,d6d641a8381b51745ea9a774607a039e,195.89.182.86,"Mozilla/5.0 (Windows NT 10.0; Win64; x64) AppleWebKit/537.36 (KHTML, like Gecko) Chrome/125.0.0.0 Safari/537.36",WebKit,Chrome,125.0.0.0,Windows,10.0,https://app.prolific.com/,"en-GB,en-US;q=0.9,en;q=0.8",87o3mz,fc_accents_56_4.mp3,forced_choice,,,,j,NA,false,false,
21371,f,audio-keyboard-response,118,6684282,0.0-25.0-0.18,17,tonic Bb4,2024-06-01 12:02:17,d6d641a8381b51745ea9a774607a039e,195.89.182.86,"Mozilla/5.0 (Windows NT 10.0; Win64; x64) AppleWebKit/537.36 (KHTML, like Gecko) Chrome/125.0.0.0 Safari/537.36",WebKit,Chrome,125.0.0.0,Windows,10.0,https://app.prolific.com/,"en-GB,en-US;q=0.9,en;q=0.8",87o3mz,fc_accents_34_4.mp3,forced_choice,,,,j,NA,false,false,
5829,f,audio-keyboard-response,119,6690342,0.0-25.0-0.19,17,tonic Bb4,2024-06-01 12:02:17,d6d641a8381b51745ea9a774607a039e,195.89.182.86,"Mozilla/5.0 (Windows NT 10.0; Win64; x64) AppleWebKit/537.36 (KHTML, like Gecko) Chrome/125.0.0.0 Safari/537.36",WebKit,Chrome,125.0.0.0,Windows,10.0,https://app.prolific.com/,"en-GB,en-US;q=0.9,en;q=0.8",87o3mz,fc_IC_default_3_2.mp3,forced_choice,,,,NA,f,false,true,
9008,j,audio-keyboard-response,120,6699771,0.0-25.0-0.20,17,tonic Bb4,2024-06-01 12:02:17,d6d641a8381b51745ea9a774607a039e,195.89.182.86,"Mozilla/5.0 (Windows NT 10.0; Win64; x64) AppleWebKit/537.36 (KHTML, like Gecko) Chrome/125.0.0.0 Safari/537.36",WebKit,Chrome,125.0.0.0,Windows,10.0,https://app.prolific.com/,"en-GB,en-US;q=0.9,en;q=0.8",87o3mz,fc_accents_32_4.mp3,forced_choice,,,,j,NA,true,false,
6531,j,audio-keyboard-response,121,6706781,0.0-25.0-0.21,17,tonic Bb4,2024-06-01 12:02:17,d6d641a8381b51745ea9a774607a039e,195.89.182.86,"Mozilla/5.0 (Windows NT 10.0; Win64; x64) AppleWebKit/537.36 (KHTML, like Gecko) Chrome/125.0.0.0 Safari/537.36",WebKit,Chrome,125.0.0.0,Windows,10.0,https://app.prolific.com/,"en-GB,en-US;q=0.9,en;q=0.8",87o3mz,fc_accents_56_1.mp3,forced_choice,,,,j,NA,true,false,
5208,f,audio-keyboard-response,122,6712172,0.0-25.0-0.22,17,tonic Bb4,2024-06-01 12:02:17,d6d641a8381b51745ea9a774607a039e,195.89.182.86,"Mozilla/5.0 (Windows NT 10.0; Win64; x64) AppleWebKit/537.36 (KHTML, like Gecko) Chrome/125.0.0.0 Safari/537.36",WebKit,Chrome,125.0.0.0,Windows,10.0,https://app.prolific.com/,"en-GB,en-US;q=0.9,en;q=0.8",87o3mz,fc_accents_56_3.mp3,forced_choice,,,,j,NA,false,false,
21760,f,audio-keyboard-response,123,6734134,0.0-25.0-0.23,17,tonic Bb4,2024-06-01 12:02:17,d6d641a8381b51745ea9a774607a039e,195.89.182.86,"Mozilla/5.0 (Windows NT 10.0; Win64; x64) AppleWebKit/537.36 (KHTML, like Gecko) Chrome/125.0.0.0 Safari/537.36",WebKit,Chrome,125.0.0.0,Windows,10.0,https://app.prolific.com/,"en-GB,en-US;q=0.9,en;q=0.8",87o3mz,fc_IC_default_3_4.mp3,forced_choice,,,,NA,f,false,true,
6299,f,audio-keyboard-response,124,6740652,0.0-25.0-0.24,17,tonic Bb4,2024-06-01 12:02:17,d6d641a8381b51745ea9a774607a039e,195.89.182.86,"Mozilla/5.0 (Windows NT 10.0; Win64; x64) AppleWebKit/537.36 (KHTML, like Gecko) Chrome/125.0.0.0 Safari/537.36",WebKit,Chrome,125.0.0.0,Windows,10.0,https://app.prolific.com/,"en-GB,en-US;q=0.9,en;q=0.8",87o3mz,fc_accents_54_3.mp3,forced_choice,,,,j,NA,false,false,
8021,j,audio-keyboard-response,125,6748874,0.0-25.0-0.25,17,tonic Bb4,2024-06-01 12:02:17,d6d641a8381b51745ea9a774607a039e,195.89.182.86,"Mozilla/5.0 (Windows NT 10.0; Win64; x64) AppleWebKit/537.36 (KHTML, like Gecko) Chrome/125.0.0.0 Safari/537.36",WebKit,Chrome,125.0.0.0,Windows,10.0,https://app.prolific.com/,"en-GB,en-US;q=0.9,en;q=0.8",87o3mz,fc_accents_56_2.mp3,forced_choice,,,,j,NA,true,false,
5848,j,audio-keyboard-response,126,6754856,0.0-25.0-0.26,17,tonic Bb4,2024-06-01 12:02:17,d6d641a8381b51745ea9a774607a039e,195.89.182.86,"Mozilla/5.0 (Windows NT 10.0; Win64; x64) AppleWebKit/537.36 (KHTML, like Gecko) Chrome/125.0.0.0 Safari/537.36",WebKit,Chrome,125.0.0.0,Windows,10.0,https://app.prolific.com/,"en-GB,en-US;q=0.9,en;q=0.8",87o3mz,fc_IC_accent_5_3.mp3,forced_choice,,,,NA,j,false,true,
5931,f,audio-keyboard-response,127,6761000,0.0-25.0-0.27,17,tonic Bb4,2024-06-01 12:02:17,d6d641a8381b51745ea9a774607a039e,195.89.182.86,"Mozilla/5.0 (Windows NT 10.0; Win64; x64) AppleWebKit/537.36 (KHTML, like Gecko) Chrome/125.0.0.0 Safari/537.36",WebKit,Chrome,125.0.0.0,Windows,10.0,https://app.prolific.com/,"en-GB,en-US;q=0.9,en;q=0.8",87o3mz,fc_IC_accent_3_3.mp3,forced_choice,,,,NA,f,false,true,
5549,j,audio-keyboard-response,128,6766743,0.0-25.0-0.28,17,tonic Bb4,2024-06-01 12:02:17,d6d641a8381b51745ea9a774607a039e,195.89.182.86,"Mozilla/5.0 (Windows NT 10.0; Win64; x64) AppleWebKit/537.36 (KHTML, like Gecko) Chrome/125.0.0.0 Safari/537.36",WebKit,Chrome,125.0.0.0,Windows,10.0,https://app.prolific.com/,"en-GB,en-US;q=0.9,en;q=0.8",87o3mz,fc_accents_34_3.mp3,forced_choice,,,,j,NA,true,false,
5829,j,audio-keyboard-response,129,6772716,0.0-25.0-0.29,17,tonic Bb4,2024-06-01 12:02:17,d6d641a8381b51745ea9a774607a039e,195.89.182.86,"Mozilla/5.0 (Windows NT 10.0; Win64; x64) AppleWebKit/537.36 (KHTML, like Gecko) Chrome/125.0.0.0 Safari/537.36",WebKit,Chrome,125.0.0.0,Windows,10.0,https://app.prolific.com/,"en-GB,en-US;q=0.9,en;q=0.8",87o3mz,fc_IC_default_5_2.mp3,forced_choice,,,,NA,j,false,true,
6512,j,audio-keyboard-response,130,6779442,0.0-25.0-0.30,17,tonic Bb4,2024-06-01 12:02:17,d6d641a8381b51745ea9a774607a039e,195.89.182.86,"Mozilla/5.0 (Windows NT 10.0; Win64; x64) AppleWebKit/537.36 (KHTML, like Gecko) Chrome/125.0.0.0 Safari/537.36",WebKit,Chrome,125.0.0.0,Windows,10.0,https://app.prolific.com/,"en-GB,en-US;q=0.9,en;q=0.8",87o3mz,fc_IC_default_5_4.mp3,forced_choice,,,,NA,j,false,true,
5480,j,audio-keyboard-response,131,6785414,0.0-25.0-0.31,17,tonic Bb4,2024-06-01 12:02:17,d6d641a8381b51745ea9a774607a039e,195.89.182.86,"Mozilla/5.0 (Windows NT 10.0; Win64; x64) AppleWebKit/537.36 (KHTML, like Gecko) Chrome/125.0.0.0 Safari/537.36",WebKit,Chrome,125.0.0.0,Windows,10.0,https://app.prolific.com/,"en-GB,en-US;q=0.9,en;q=0.8",87o3mz,fc_IC_accent_5_2.mp3,forced_choice,,,,NA,j,false,true,
2908, ,html-keyboard-response,132,6788329,0.0-26.0,17,tonic Bb4,2024-06-01 12:02:17,d6d641a8381b51745ea9a774607a039e,195.89.182.86,"Mozilla/5.0 (Windows NT 10.0; Win64; x64) AppleWebKit/537.36 (KHTML, like Gecko) Chrome/125.0.0.0 Safari/537.36",WebKit,Chrome,125.0.0.0,Windows,10.0,https://app.prolific.com/,"en-GB,en-US;q=0.9,en;q=0.8",87o3mz,"<p>You have completed all the listening in this experiment. The remaining questions about your background
          will help us better understand your responses. You can skip any question that you do not wish to answer. </p>
          <p> <b> Press the space bar to continue. </b></p>",,,,,,,,,
3090,"{""HeadphoneUse"":""No, I used computer speakers""}",survey-multi-choice,133,6791431,0.0-27.0,17,tonic Bb4,2024-06-01 12:02:17,d6d641a8381b51745ea9a774607a039e,195.89.182.86,"Mozilla/5.0 (Windows NT 10.0; Win64; x64) AppleWebKit/537.36 (KHTML, like Gecko) Chrome/125.0.0.0 Safari/537.36",WebKit,Chrome,125.0.0.0,Windows,10.0,https://app.prolific.com/,"en-GB,en-US;q=0.9,en;q=0.8",87o3mz,,survey,,,,,,,,[0]
12340,"{""age"":""1994"",""country"":""United Kingdom (Northern Ireland)"",""language"":""English""}",survey-html-form,134,6803798,0.0-28.0,17,tonic Bb4,2024-06-01 12:02:17,d6d641a8381b51745ea9a774607a039e,195.89.182.86,"Mozilla/5.0 (Windows NT 10.0; Win64; x64) AppleWebKit/537.36 (KHTML, like Gecko) Chrome/125.0.0.0 Safari/537.36",WebKit,Chrome,125.0.0.0,Windows,10.0,https://app.prolific.com/,"en-GB,en-US;q=0.9,en;q=0.8",87o3mz,,survey,,,,,,,,
1598,"{""Gender"":""Male""}",survey-multi-choice,135,6805402,0.0-29.0,17,tonic Bb4,2024-06-01 12:02:17,d6d641a8381b51745ea9a774607a039e,195.89.182.86,"Mozilla/5.0 (Windows NT 10.0; Win64; x64) AppleWebKit/537.36 (KHTML, like Gecko) Chrome/125.0.0.0 Safari/537.36",WebKit,Chrome,125.0.0.0,Windows,10.0,https://app.prolific.com/,"en-GB,en-US;q=0.9,en;q=0.8",87o3mz,,survey,,,,,,,,[0]
11070,"{""Colors"":[""Pop"",""Rock"",""Classical""]}",survey-multi-select,136,6816494,0.0-30.0,17,tonic Bb4,2024-06-01 12:02:17,d6d641a8381b51745ea9a774607a039e,195.89.182.86,"Mozilla/5.0 (Windows NT 10.0; Win64; x64) AppleWebKit/537.36 (KHTML, like Gecko) Chrome/125.0.0.0 Safari/537.36",WebKit,Chrome,125.0.0.0,Windows,10.0,https://app.prolific.com/,"en-GB,en-US;q=0.9,en;q=0.8",87o3mz,,,,,,,,,,[0]
6621,"{""HearingImpairment"":""No"",""PerfectPitch"":""No"",""Singing"":""Yes""}",survey-multi-choice,137,6823129,0.0-31.0,17,tonic Bb4,2024-06-01 12:02:17,d6d641a8381b51745ea9a774607a039e,195.89.182.86,"Mozilla/5.0 (Windows NT 10.0; Win64; x64) AppleWebKit/537.36 (KHTML, like Gecko) Chrome/125.0.0.0 Safari/537.36",WebKit,Chrome,125.0.0.0,Windows,10.0,https://app.prolific.com/,"en-GB,en-US;q=0.9,en;q=0.8",87o3mz,,survey,,,,,,,,"[0,1,2]"
17456,"{""PracticeHours"":""30 minutes-1 hour"",""TrainingYears"":""Over 10 years"",""TrainingType"":""I took lessons with a private teacher"",""Expertise"":""Advanced"",""NonWesternTraining"":""No""}",survey-multi-choice,138,6840598,0.0-32.0,17,tonic Bb4,2024-06-01 12:02:17,d6d641a8381b51745ea9a774607a039e,195.89.182.86,"Mozilla/5.0 (Windows NT 10.0; Win64; x64) AppleWebKit/537.36 (KHTML, like Gecko) Chrome/125.0.0.0 Safari/537.36",WebKit,Chrome,125.0.0.0,Windows,10.0,https://app.prolific.com/,"en-GB,en-US;q=0.9,en;q=0.8",87o3mz,,survey,,,,,,,,"[0,1,2,3,4]"
3861,"{""TrainingStart"":""5-7""}",survey-multi-choice,139,6844474,0.0-33.0,17,tonic Bb4,2024-06-01 12:02:17,d6d641a8381b51745ea9a774607a039e,195.89.182.86,"Mozilla/5.0 (Windows NT 10.0; Win64; x64) AppleWebKit/537.36 (KHTML, like Gecko) Chrome/125.0.0.0 Safari/537.36",WebKit,Chrome,125.0.0.0,Windows,10.0,https://app.prolific.com/,"en-GB,en-US;q=0.9,en;q=0.8",87o3mz,,survey,,,,,,,,[0]
7820,0,html-button-response,140,6852312,0.0-34.0,17,tonic Bb4,2024-06-01 12:02:17,d6d641a8381b51745ea9a774607a039e,195.89.182.86,"Mozilla/5.0 (Windows NT 10.0; Win64; x64) AppleWebKit/537.36 (KHTML, like Gecko) Chrome/125.0.0.0 Safari/537.36",WebKit,Chrome,125.0.0.0,Windows,10.0,https://app.prolific.com/,"en-GB,en-US;q=0.9,en;q=0.8",87o3mz,"You have reached the end of the experiment. Your completion code is <b>C1AWH3EX</b>.
    <p>For questions or concerns, please write to <b>haiqin.zhang@ens.psl.eu.</b></p>
    Thank you for your participation!
  ",,,,,,,,,
21176,"{""prolific_id"":""5fea2e6613597c51a166f24d""}",survey-html-form,0,21177,0.0-0.0,10,tonic Bb4,2024-06-01 11:59:47,d6d641a8381b51745ea9a774607a039e,86.14.69.172,"Mozilla/5.0 (Windows NT 10.0; Win64; x64) AppleWebKit/537.36 (KHTML, like Gecko) Chrome/125.0.0.0 Safari/537.36",WebKit,Chrome,125.0.0.0,Windows,10.0,https://app.prolific.com/,"en-GB,en;q=0.9,en-US;q=0.8,ja;q=0.7,es;q=0.6",n727gy,,,,,,,,,,
3276, ,html-keyboard-response,1,24455,0.0-1.0,10,tonic Bb4,2024-06-01 11:59:47,d6d641a8381b51745ea9a774607a039e,86.14.69.172,"Mozilla/5.0 (Windows NT 10.0; Win64; x64) AppleWebKit/537.36 (KHTML, like Gecko) Chrome/125.0.0.0 Safari/537.36",WebKit,Chrome,125.0.0.0,Windows,10.0,https://app.prolific.com/,"en-GB,en;q=0.9,en-US;q=0.8,ja;q=0.7,es;q=0.6",n727gy,"
    <p>Please complete the experiment in a quiet place.
      We highly recommend using headphones.</p>

    </p align = 'justify'> <b>Press the space bar to proceed.</b> </p>",,,,,,,,,
27925, ,html-keyboard-response,2,52381,0.0-2.0,10,tonic Bb4,2024-06-01 11:59:47,d6d641a8381b51745ea9a774607a039e,86.14.69.172,"Mozilla/5.0 (Windows NT 10.0; Win64; x64) AppleWebKit/537.36 (KHTML, like Gecko) Chrome/125.0.0.0 Safari/537.36",WebKit,Chrome,125.0.0.0,Windows,10.0,https://app.prolific.com/,"en-GB,en;q=0.9,en-US;q=0.8,ja;q=0.7,es;q=0.6",n727gy,"
    <p>A series of soundchecks will now be played to help you adjust the volume
      to a comfortable level. </p>

    </p align = 'justify'> <b>Press the space bar to proceed.</b> </p>",,,,,,,,,
17651,0,audio-button-response,3,70215,0.0-3.0-0.0,10,tonic Bb4,2024-06-01 11:59:47,d6d641a8381b51745ea9a774607a039e,86.14.69.172,"Mozilla/5.0 (Windows NT 10.0; Win64; x64) AppleWebKit/537.36 (KHTML, like Gecko) Chrome/125.0.0.0 Safari/537.36",WebKit,Chrome,125.0.0.0,Windows,10.0,https://app.prolific.com/,"en-GB,en;q=0.9,en-US;q=0.8,ja;q=0.7,es;q=0.6",n727gy,grammatical_1.mp3,,,,,,,,,
4109,1,audio-button-response,4,74327,0.0-3.1-0.1,10,tonic Bb4,2024-06-01 11:59:47,d6d641a8381b51745ea9a774607a039e,86.14.69.172,"Mozilla/5.0 (Windows NT 10.0; Win64; x64) AppleWebKit/537.36 (KHTML, like Gecko) Chrome/125.0.0.0 Safari/537.36",WebKit,Chrome,125.0.0.0,Windows,10.0,https://app.prolific.com/,"en-GB,en;q=0.9,en-US;q=0.8,ja;q=0.7,es;q=0.6",n727gy,grammatical_1.mp3,,,,,,,,,
9760, ,html-keyboard-response,5,84088,0.0-4.0,10,tonic Bb4,2024-06-01 11:59:47,d6d641a8381b51745ea9a774607a039e,86.14.69.172,"Mozilla/5.0 (Windows NT 10.0; Win64; x64) AppleWebKit/537.36 (KHTML, like Gecko) Chrome/125.0.0.0 Safari/537.36",WebKit,Chrome,125.0.0.0,Windows,10.0,https://app.prolific.com/,"en-GB,en;q=0.9,en-US;q=0.8,ja;q=0.7,es;q=0.6",n727gy,"<p width = 300 px>
    You will now hear two melodies in succession. 
    The notes in each melody are the same, but there is an accent on one note for one of the melodies. 
    <b>Listen for which melody has the accent.</b>
    </p>
    
    Press the space bar to continue.",,,,,,,,,
2051, ,html-keyboard-response,6,86140,0.0-5.0,10,tonic Bb4,2024-06-01 11:59:47,d6d641a8381b51745ea9a774607a039e,86.14.69.172,"Mozilla/5.0 (Windows NT 10.0; Win64; x64) AppleWebKit/537.36 (KHTML, like Gecko) Chrome/125.0.0.0 Safari/537.36",WebKit,Chrome,125.0.0.0,Windows,10.0,https://app.prolific.com/,"en-GB,en;q=0.9,en-US;q=0.8,ja;q=0.7,es;q=0.6",n727gy,"<p width = 300 px>
    <b>You must score at least 2/3 to proceed with the experiment.</b>
    </p>
    
    Press the space bar to continue.",,,,,,,,,
6072,1,audio-button-response,7,92338,0.0-6.0,10,tonic Bb4,2024-06-01 11:59:47,d6d641a8381b51745ea9a774607a039e,86.14.69.172,"Mozilla/5.0 (Windows NT 10.0; Win64; x64) AppleWebKit/537.36 (KHTML, like Gecko) Chrome/125.0.0.0 Safari/537.36",WebKit,Chrome,125.0.0.0,Windows,10.0,https://app.prolific.com/,"en-GB,en;q=0.9,en-US;q=0.8,ja;q=0.7,es;q=0.6",n727gy,fc_accents_32_1.mp3,soundcheck,true,,,,,,,
1188, ,html-keyboard-response,8,93527,0.0-7.0,10,tonic Bb4,2024-06-01 11:59:47,d6d641a8381b51745ea9a774607a039e,86.14.69.172,"Mozilla/5.0 (Windows NT 10.0; Win64; x64) AppleWebKit/537.36 (KHTML, like Gecko) Chrome/125.0.0.0 Safari/537.36",WebKit,Chrome,125.0.0.0,Windows,10.0,https://app.prolific.com/,"en-GB,en;q=0.9,en-US;q=0.8,ja;q=0.7,es;q=0.6",n727gy,<p>Correct!</p> Press the space bar to continue.,,,,,,,,,
6352,1,audio-button-response,9,99944,0.0-8.0,10,tonic Bb4,2024-06-01 11:59:47,d6d641a8381b51745ea9a774607a039e,86.14.69.172,"Mozilla/5.0 (Windows NT 10.0; Win64; x64) AppleWebKit/537.36 (KHTML, like Gecko) Chrome/125.0.0.0 Safari/537.36",WebKit,Chrome,125.0.0.0,Windows,10.0,https://app.prolific.com/,"en-GB,en;q=0.9,en-US;q=0.8,ja;q=0.7,es;q=0.6",n727gy,fc_accents_56_4.mp3,soundcheck,true,,,,,,,
1090, ,html-keyboard-response,10,101036,0.0-9.0,10,tonic Bb4,2024-06-01 11:59:47,d6d641a8381b51745ea9a774607a039e,86.14.69.172,"Mozilla/5.0 (Windows NT 10.0; Win64; x64) AppleWebKit/537.36 (KHTML, like Gecko) Chrome/125.0.0.0 Safari/537.36",WebKit,Chrome,125.0.0.0,Windows,10.0,https://app.prolific.com/,"en-GB,en;q=0.9,en-US;q=0.8,ja;q=0.7,es;q=0.6",n727gy,<p>Correct!</p> Press the space bar to continue.,,,,,,,,,
7640,1,audio-button-response,11,108741,0.0-10.0,10,tonic Bb4,2024-06-01 11:59:47,d6d641a8381b51745ea9a774607a039e,86.14.69.172,"Mozilla/5.0 (Windows NT 10.0; Win64; x64) AppleWebKit/537.36 (KHTML, like Gecko) Chrome/125.0.0.0 Safari/537.36",WebKit,Chrome,125.0.0.0,Windows,10.0,https://app.prolific.com/,"en-GB,en;q=0.9,en-US;q=0.8,ja;q=0.7,es;q=0.6",n727gy,fc_accents_54_4.mp3,soundcheck,true,,,,,,,
949, ,html-keyboard-response,12,109691,0.0-11.0,10,tonic Bb4,2024-06-01 11:59:47,d6d641a8381b51745ea9a774607a039e,86.14.69.172,"Mozilla/5.0 (Windows NT 10.0; Win64; x64) AppleWebKit/537.36 (KHTML, like Gecko) Chrome/125.0.0.0 Safari/537.36",WebKit,Chrome,125.0.0.0,Windows,10.0,https://app.prolific.com/,"en-GB,en;q=0.9,en-US;q=0.8,ja;q=0.7,es;q=0.6",n727gy,<p>Correct!</p> Press the space bar to continue.,,,,,,,,,
3979, ,html-keyboard-response,13,113670,0.0-12.0,10,tonic Bb4,2024-06-01 11:59:47,d6d641a8381b51745ea9a774607a039e,86.14.69.172,"Mozilla/5.0 (Windows NT 10.0; Win64; x64) AppleWebKit/537.36 (KHTML, like Gecko) Chrome/125.0.0.0 Safari/537.36",WebKit,Chrome,125.0.0.0,Windows,10.0,https://app.prolific.com/,"en-GB,en;q=0.9,en-US;q=0.8,ja;q=0.7,es;q=0.6",n727gy,"If you got <b>less than 2/3</b> of the previous soundcheck questions correct, <b>we unfortunately cannot use your data or pay you</b>. Please exit the experiment now.
    
    <p>If you got <b>more than 2/3</b> correct, press the space bar to continue</p>.",,,,,,,,,
12668, ,html-keyboard-response,14,126339,0.0-13.0,10,tonic Bb4,2024-06-01 11:59:47,d6d641a8381b51745ea9a774607a039e,86.14.69.172,"Mozilla/5.0 (Windows NT 10.0; Win64; x64) AppleWebKit/537.36 (KHTML, like Gecko) Chrome/125.0.0.0 Safari/537.36",WebKit,Chrome,125.0.0.0,Windows,10.0,https://app.prolific.com/,"en-GB,en;q=0.9,en-US;q=0.8,ja;q=0.7,es;q=0.6",n727gy,"<p>Please listen carefully to the following set of melodies. 
      You will occassionally be asked some basic questions about some of the melodies to check your attention level. </p>
    <p><b>Press the space bar to continue.</b></p>",,,,,,,,,
5461, ,html-keyboard-response,15,131801,0.0-14.0,10,tonic Bb4,2024-06-01 11:59:47,d6d641a8381b51745ea9a774607a039e,86.14.69.172,"Mozilla/5.0 (Windows NT 10.0; Win64; x64) AppleWebKit/537.36 (KHTML, like Gecko) Chrome/125.0.0.0 Safari/537.36",WebKit,Chrome,125.0.0.0,Windows,10.0,https://app.prolific.com/,"en-GB,en;q=0.9,en-US;q=0.8,ja;q=0.7,es;q=0.6",n727gy,"<p>The attention questions vary in difficulty, but you must get at least some questions correct for us to pay you.</p>
    <p><b>Press the space bar to continue.</b></p>",,,,,,,,,
8684, ,html-keyboard-response,16,140486,0.0-15.0,10,tonic Bb4,2024-06-01 11:59:47,d6d641a8381b51745ea9a774607a039e,86.14.69.172,"Mozilla/5.0 (Windows NT 10.0; Win64; x64) AppleWebKit/537.36 (KHTML, like Gecko) Chrome/125.0.0.0 Safari/537.36",WebKit,Chrome,125.0.0.0,Windows,10.0,https://app.prolific.com/,"en-GB,en;q=0.9,en-US;q=0.8,ja;q=0.7,es;q=0.6",n727gy,"
    This part of the experiment should take <b>15-20 minutes</b>. 
    <p><b>Press the space bar to begin.</b></p>",,,,,,,,,
9131,1,audio-button-response,17,149675,0.0-16.0-0.0,10,tonic Bb4,2024-06-01 11:59:47,d6d641a8381b51745ea9a774607a039e,86.14.69.172,"Mozilla/5.0 (Windows NT 10.0; Win64; x64) AppleWebKit/537.36 (KHTML, like Gecko) Chrome/125.0.0.0 Safari/537.36",WebKit,Chrome,125.0.0.0,Windows,10.0,https://app.prolific.com/,"en-GB,en;q=0.9,en-US;q=0.8,ja;q=0.7,es;q=0.6",n727gy,attn_length_easy_1.mp3,exposure,true,attncheck,,,,,,
null,null,audio-keyboard-response,18,173030,0.0-16.0-1.0,10,tonic Bb4,2024-06-01 11:59:47,d6d641a8381b51745ea9a774607a039e,86.14.69.172,"Mozilla/5.0 (Windows NT 10.0; Win64; x64) AppleWebKit/537.36 (KHTML, like Gecko) Chrome/125.0.0.0 Safari/537.36",WebKit,Chrome,125.0.0.0,Windows,10.0,https://app.prolific.com/,"en-GB,en;q=0.9,en-US;q=0.8,ja;q=0.7,es;q=0.6",n727gy,"[""exposure_4s_39.mp3""]",exposure,,exp_noresponse,,,,,,
null,null,audio-keyboard-response,19,196384,0.0-16.0-2.0,10,tonic Bb4,2024-06-01 11:59:47,d6d641a8381b51745ea9a774607a039e,86.14.69.172,"Mozilla/5.0 (Windows NT 10.0; Win64; x64) AppleWebKit/537.36 (KHTML, like Gecko) Chrome/125.0.0.0 Safari/537.36",WebKit,Chrome,125.0.0.0,Windows,10.0,https://app.prolific.com/,"en-GB,en;q=0.9,en-US;q=0.8,ja;q=0.7,es;q=0.6",n727gy,"[""exposure_4s_38.mp3""]",exposure,,exp_noresponse,,,,,,
null,null,audio-keyboard-response,20,219502,0.0-16.0-3.0,10,tonic Bb4,2024-06-01 11:59:47,d6d641a8381b51745ea9a774607a039e,86.14.69.172,"Mozilla/5.0 (Windows NT 10.0; Win64; x64) AppleWebKit/537.36 (KHTML, like Gecko) Chrome/125.0.0.0 Safari/537.36",WebKit,Chrome,125.0.0.0,Windows,10.0,https://app.prolific.com/,"en-GB,en;q=0.9,en-US;q=0.8,ja;q=0.7,es;q=0.6",n727gy,"[""exposure_4s_20.mp3""]",exposure,,exp_noresponse,,,,,,
null,null,audio-keyboard-response,21,242616,0.0-16.0-4.0,10,tonic Bb4,2024-06-01 11:59:47,d6d641a8381b51745ea9a774607a039e,86.14.69.172,"Mozilla/5.0 (Windows NT 10.0; Win64; x64) AppleWebKit/537.36 (KHTML, like Gecko) Chrome/125.0.0.0 Safari/537.36",WebKit,Chrome,125.0.0.0,Windows,10.0,https://app.prolific.com/,"en-GB,en;q=0.9,en-US;q=0.8,ja;q=0.7,es;q=0.6",n727gy,"[""exposure_4s_5.mp3""]",exposure,,exp_noresponse,,,,,,
8651,5,audio-slider-response,22,251384,0.0-16.0-5.0,10,tonic Bb4,2024-06-01 11:59:47,d6d641a8381b51745ea9a774607a039e,86.14.69.172,"Mozilla/5.0 (Windows NT 10.0; Win64; x64) AppleWebKit/537.36 (KHTML, like Gecko) Chrome/125.0.0.0 Safari/537.36",WebKit,Chrome,125.0.0.0,Windows,10.0,https://app.prolific.com/,"en-GB,en;q=0.9,en-US;q=0.8,ja;q=0.7,es;q=0.6",n727gy,"[""grammatical_2.mp3""]",exposure,,exp_liking,4,,,,,
null,null,audio-keyboard-response,23,274396,0.0-16.0-6.0,10,tonic Bb4,2024-06-01 11:59:47,d6d641a8381b51745ea9a774607a039e,86.14.69.172,"Mozilla/5.0 (Windows NT 10.0; Win64; x64) AppleWebKit/537.36 (KHTML, like Gecko) Chrome/125.0.0.0 Safari/537.36",WebKit,Chrome,125.0.0.0,Windows,10.0,https://app.prolific.com/,"en-GB,en;q=0.9,en-US;q=0.8,ja;q=0.7,es;q=0.6",n727gy,"[""exposure_4s_20.mp3""]",exposure,,exp_noresponse,,,,,,
5259,5,audio-slider-response,24,279786,0.0-16.0-7.0,10,tonic Bb4,2024-06-01 11:59:47,d6d641a8381b51745ea9a774607a039e,86.14.69.172,"Mozilla/5.0 (Windows NT 10.0; Win64; x64) AppleWebKit/537.36 (KHTML, like Gecko) Chrome/125.0.0.0 Safari/537.36",WebKit,Chrome,125.0.0.0,Windows,10.0,https://app.prolific.com/,"en-GB,en;q=0.9,en-US;q=0.8,ja;q=0.7,es;q=0.6",n727gy,"[""grammatical_3.mp3""]",exposure,,exp_liking,4,,,,,
null,null,audio-keyboard-response,25,303105,0.0-16.0-8.0,10,tonic Bb4,2024-06-01 11:59:47,d6d641a8381b51745ea9a774607a039e,86.14.69.172,"Mozilla/5.0 (Windows NT 10.0; Win64; x64) AppleWebKit/537.36 (KHTML, like Gecko) Chrome/125.0.0.0 Safari/537.36",WebKit,Chrome,125.0.0.0,Windows,10.0,https://app.prolific.com/,"en-GB,en;q=0.9,en-US;q=0.8,ja;q=0.7,es;q=0.6",n727gy,"[""exposure_4s_29.mp3""]",exposure,,exp_noresponse,,,,,,
null,null,audio-keyboard-response,26,326319,0.0-16.0-9.0,10,tonic Bb4,2024-06-01 11:59:47,d6d641a8381b51745ea9a774607a039e,86.14.69.172,"Mozilla/5.0 (Windows NT 10.0; Win64; x64) AppleWebKit/537.36 (KHTML, like Gecko) Chrome/125.0.0.0 Safari/537.36",WebKit,Chrome,125.0.0.0,Windows,10.0,https://app.prolific.com/,"en-GB,en;q=0.9,en-US;q=0.8,ja;q=0.7,es;q=0.6",n727gy,"[""exposure_4s_12.mp3""]",exposure,,exp_noresponse,,,,,,
null,null,audio-keyboard-response,27,349534,0.0-16.0-10.0,10,tonic Bb4,2024-06-01 11:59:47,d6d641a8381b51745ea9a774607a039e,86.14.69.172,"Mozilla/5.0 (Windows NT 10.0; Win64; x64) AppleWebKit/537.36 (KHTML, like Gecko) Chrome/125.0.0.0 Safari/537.36",WebKit,Chrome,125.0.0.0,Windows,10.0,https://app.prolific.com/,"en-GB,en;q=0.9,en-US;q=0.8,ja;q=0.7,es;q=0.6",n727gy,"[""exposure_4s_45.mp3""]",exposure,,exp_noresponse,,,,,,
null,null,audio-keyboard-response,28,372817,0.0-16.0-11.0,10,tonic Bb4,2024-06-01 11:59:47,d6d641a8381b51745ea9a774607a039e,86.14.69.172,"Mozilla/5.0 (Windows NT 10.0; Win64; x64) AppleWebKit/537.36 (KHTML, like Gecko) Chrome/125.0.0.0 Safari/537.36",WebKit,Chrome,125.0.0.0,Windows,10.0,https://app.prolific.com/,"en-GB,en;q=0.9,en-US;q=0.8,ja;q=0.7,es;q=0.6",n727gy,"[""exposure_4s_31.mp3""]",exposure,,exp_noresponse,,,,,,
null,null,audio-keyboard-response,29,395818,0.0-16.0-12.0,10,tonic Bb4,2024-06-01 11:59:47,d6d641a8381b51745ea9a774607a039e,86.14.69.172,"Mozilla/5.0 (Windows NT 10.0; Win64; x64) AppleWebKit/537.36 (KHTML, like Gecko) Chrome/125.0.0.0 Safari/537.36",WebKit,Chrome,125.0.0.0,Windows,10.0,https://app.prolific.com/,"en-GB,en;q=0.9,en-US;q=0.8,ja;q=0.7,es;q=0.6",n727gy,"[""exposure_4s_31.mp3""]",exposure,,exp_noresponse,,,,,,
null,null,audio-keyboard-response,30,418819,0.0-16.0-13.0,10,tonic Bb4,2024-06-01 11:59:47,d6d641a8381b51745ea9a774607a039e,86.14.69.172,"Mozilla/5.0 (Windows NT 10.0; Win64; x64) AppleWebKit/537.36 (KHTML, like Gecko) Chrome/125.0.0.0 Safari/537.36",WebKit,Chrome,125.0.0.0,Windows,10.0,https://app.prolific.com/,"en-GB,en;q=0.9,en-US;q=0.8,ja;q=0.7,es;q=0.6",n727gy,"[""exposure_4s_31.mp3""]",exposure,,exp_noresponse,,,,,,
null,null,audio-keyboard-response,31,441823,0.0-16.0-14.0,10,tonic Bb4,2024-06-01 11:59:47,d6d641a8381b51745ea9a774607a039e,86.14.69.172,"Mozilla/5.0 (Windows NT 10.0; Win64; x64) AppleWebKit/537.36 (KHTML, like Gecko) Chrome/125.0.0.0 Safari/537.36",WebKit,Chrome,125.0.0.0,Windows,10.0,https://app.prolific.com/,"en-GB,en;q=0.9,en-US;q=0.8,ja;q=0.7,es;q=0.6",n727gy,"[""exposure_4s_29.mp3""]",exposure,,exp_noresponse,,,,,,
null,null,audio-keyboard-response,32,465080,0.0-16.0-15.0,10,tonic Bb4,2024-06-01 11:59:47,d6d641a8381b51745ea9a774607a039e,86.14.69.172,"Mozilla/5.0 (Windows NT 10.0; Win64; x64) AppleWebKit/537.36 (KHTML, like Gecko) Chrome/125.0.0.0 Safari/537.36",WebKit,Chrome,125.0.0.0,Windows,10.0,https://app.prolific.com/,"en-GB,en;q=0.9,en-US;q=0.8,ja;q=0.7,es;q=0.6",n727gy,"[""exposure_4s_28.mp3""]",exposure,,exp_noresponse,,,,,,
null,null,audio-keyboard-response,33,488205,0.0-16.0-16.0,10,tonic Bb4,2024-06-01 11:59:47,d6d641a8381b51745ea9a774607a039e,86.14.69.172,"Mozilla/5.0 (Windows NT 10.0; Win64; x64) AppleWebKit/537.36 (KHTML, like Gecko) Chrome/125.0.0.0 Safari/537.36",WebKit,Chrome,125.0.0.0,Windows,10.0,https://app.prolific.com/,"en-GB,en;q=0.9,en-US;q=0.8,ja;q=0.7,es;q=0.6",n727gy,"[""exposure_4s_17.mp3""]",exposure,,exp_noresponse,,,,,,
null,null,audio-keyboard-response,34,511322,0.0-16.0-17.0,10,tonic Bb4,2024-06-01 11:59:47,d6d641a8381b51745ea9a774607a039e,86.14.69.172,"Mozilla/5.0 (Windows NT 10.0; Win64; x64) AppleWebKit/537.36 (KHTML, like Gecko) Chrome/125.0.0.0 Safari/537.36",WebKit,Chrome,125.0.0.0,Windows,10.0,https://app.prolific.com/,"en-GB,en;q=0.9,en-US;q=0.8,ja;q=0.7,es;q=0.6",n727gy,"[""exposure_4s_1.mp3""]",exposure,,exp_noresponse,,,,,,
7811,1,audio-button-response,35,519180,0.0-16.0-18.0,10,tonic Bb4,2024-06-01 11:59:47,d6d641a8381b51745ea9a774607a039e,86.14.69.172,"Mozilla/5.0 (Windows NT 10.0; Win64; x64) AppleWebKit/537.36 (KHTML, like Gecko) Chrome/125.0.0.0 Safari/537.36",WebKit,Chrome,125.0.0.0,Windows,10.0,https://app.prolific.com/,"en-GB,en;q=0.9,en-US;q=0.8,ja;q=0.7,es;q=0.6",n727gy,attn_length_int_1.mp3,exposure,true,attncheck,,,,,,
11368,1,audio-button-response,36,530617,0.0-16.0-19.0,10,tonic Bb4,2024-06-01 11:59:47,d6d641a8381b51745ea9a774607a039e,86.14.69.172,"Mozilla/5.0 (Windows NT 10.0; Win64; x64) AppleWebKit/537.36 (KHTML, like Gecko) Chrome/125.0.0.0 Safari/537.36",WebKit,Chrome,125.0.0.0,Windows,10.0,https://app.prolific.com/,"en-GB,en;q=0.9,en-US;q=0.8,ja;q=0.7,es;q=0.6",n727gy,attn_length_hard_1.mp3,exposure,true,attncheck,,,,,,
null,null,audio-keyboard-response,37,553626,0.0-16.0-20.0,10,tonic Bb4,2024-06-01 11:59:47,d6d641a8381b51745ea9a774607a039e,86.14.69.172,"Mozilla/5.0 (Windows NT 10.0; Win64; x64) AppleWebKit/537.36 (KHTML, like Gecko) Chrome/125.0.0.0 Safari/537.36",WebKit,Chrome,125.0.0.0,Windows,10.0,https://app.prolific.com/,"en-GB,en;q=0.9,en-US;q=0.8,ja;q=0.7,es;q=0.6",n727gy,"[""exposure_4s_1.mp3""]",exposure,,exp_noresponse,,,,,,
null,null,audio-keyboard-response,38,576749,0.0-16.0-21.0,10,tonic Bb4,2024-06-01 11:59:47,d6d641a8381b51745ea9a774607a039e,86.14.69.172,"Mozilla/5.0 (Windows NT 10.0; Win64; x64) AppleWebKit/537.36 (KHTML, like Gecko) Chrome/125.0.0.0 Safari/537.36",WebKit,Chrome,125.0.0.0,Windows,10.0,https://app.prolific.com/,"en-GB,en;q=0.9,en-US;q=0.8,ja;q=0.7,es;q=0.6",n727gy,"[""exposure_4s_15.mp3""]",exposure,,exp_noresponse,,,,,,
null,null,audio-keyboard-response,39,600012,0.0-16.0-22.0,10,tonic Bb4,2024-06-01 11:59:47,d6d641a8381b51745ea9a774607a039e,86.14.69.172,"Mozilla/5.0 (Windows NT 10.0; Win64; x64) AppleWebKit/537.36 (KHTML, like Gecko) Chrome/125.0.0.0 Safari/537.36",WebKit,Chrome,125.0.0.0,Windows,10.0,https://app.prolific.com/,"en-GB,en;q=0.9,en-US;q=0.8,ja;q=0.7,es;q=0.6",n727gy,"[""exposure_4s_16.mp3""]",exposure,,exp_noresponse,,,,,,
null,null,audio-keyboard-response,40,623461,0.0-16.0-23.0,10,tonic Bb4,2024-06-01 11:59:47,d6d641a8381b51745ea9a774607a039e,86.14.69.172,"Mozilla/5.0 (Windows NT 10.0; Win64; x64) AppleWebKit/537.36 (KHTML, like Gecko) Chrome/125.0.0.0 Safari/537.36",WebKit,Chrome,125.0.0.0,Windows,10.0,https://app.prolific.com/,"en-GB,en;q=0.9,en-US;q=0.8,ja;q=0.7,es;q=0.6",n727gy,"[""exposure_4s_25.mp3""]",exposure,,exp_noresponse,,,,,,
null,null,audio-keyboard-response,41,646596,0.0-16.0-24.0,10,tonic Bb4,2024-06-01 11:59:47,d6d641a8381b51745ea9a774607a039e,86.14.69.172,"Mozilla/5.0 (Windows NT 10.0; Win64; x64) AppleWebKit/537.36 (KHTML, like Gecko) Chrome/125.0.0.0 Safari/537.36",WebKit,Chrome,125.0.0.0,Windows,10.0,https://app.prolific.com/,"en-GB,en;q=0.9,en-US;q=0.8,ja;q=0.7,es;q=0.6",n727gy,"[""exposure_4s_7.mp3""]",exposure,,exp_noresponse,,,,,,
null,null,audio-keyboard-response,42,669855,0.0-16.0-25.0,10,tonic Bb4,2024-06-01 11:59:47,d6d641a8381b51745ea9a774607a039e,86.14.69.172,"Mozilla/5.0 (Windows NT 10.0; Win64; x64) AppleWebKit/537.36 (KHTML, like Gecko) Chrome/125.0.0.0 Safari/537.36",WebKit,Chrome,125.0.0.0,Windows,10.0,https://app.prolific.com/,"en-GB,en;q=0.9,en-US;q=0.8,ja;q=0.7,es;q=0.6",n727gy,"[""exposure_4s_13.mp3""]",exposure,,exp_noresponse,,,,,,
8312,1,audio-button-response,43,678166,0.0-16.0-26.0,10,tonic Bb4,2024-06-01 11:59:47,d6d641a8381b51745ea9a774607a039e,86.14.69.172,"Mozilla/5.0 (Windows NT 10.0; Win64; x64) AppleWebKit/537.36 (KHTML, like Gecko) Chrome/125.0.0.0 Safari/537.36",WebKit,Chrome,125.0.0.0,Windows,10.0,https://app.prolific.com/,"en-GB,en;q=0.9,en-US;q=0.8,ja;q=0.7,es;q=0.6",n727gy,attn_length_easy_1.mp3,exposure,true,attncheck,,,,,,
null,null,audio-keyboard-response,44,701177,0.0-16.0-27.0,10,tonic Bb4,2024-06-01 11:59:47,d6d641a8381b51745ea9a774607a039e,86.14.69.172,"Mozilla/5.0 (Windows NT 10.0; Win64; x64) AppleWebKit/537.36 (KHTML, like Gecko) Chrome/125.0.0.0 Safari/537.36",WebKit,Chrome,125.0.0.0,Windows,10.0,https://app.prolific.com/,"en-GB,en;q=0.9,en-US;q=0.8,ja;q=0.7,es;q=0.6",n727gy,"[""exposure_4s_38.mp3""]",exposure,,exp_noresponse,,,,,,
null,null,audio-keyboard-response,45,724181,0.0-16.0-28.0,10,tonic Bb4,2024-06-01 11:59:47,d6d641a8381b51745ea9a774607a039e,86.14.69.172,"Mozilla/5.0 (Windows NT 10.0; Win64; x64) AppleWebKit/537.36 (KHTML, like Gecko) Chrome/125.0.0.0 Safari/537.36",WebKit,Chrome,125.0.0.0,Windows,10.0,https://app.prolific.com/,"en-GB,en;q=0.9,en-US;q=0.8,ja;q=0.7,es;q=0.6",n727gy,"[""exposure_4s_16.mp3""]",exposure,,exp_noresponse,,,,,,
null,null,audio-keyboard-response,46,747185,0.0-16.0-29.0,10,tonic Bb4,2024-06-01 11:59:47,d6d641a8381b51745ea9a774607a039e,86.14.69.172,"Mozilla/5.0 (Windows NT 10.0; Win64; x64) AppleWebKit/537.36 (KHTML, like Gecko) Chrome/125.0.0.0 Safari/537.36",WebKit,Chrome,125.0.0.0,Windows,10.0,https://app.prolific.com/,"en-GB,en;q=0.9,en-US;q=0.8,ja;q=0.7,es;q=0.6",n727gy,"[""exposure_4s_17.mp3""]",exposure,,exp_noresponse,,,,,,
null,null,audio-keyboard-response,47,770460,0.0-16.0-30.0,10,tonic Bb4,2024-06-01 11:59:47,d6d641a8381b51745ea9a774607a039e,86.14.69.172,"Mozilla/5.0 (Windows NT 10.0; Win64; x64) AppleWebKit/537.36 (KHTML, like Gecko) Chrome/125.0.0.0 Safari/537.36",WebKit,Chrome,125.0.0.0,Windows,10.0,https://app.prolific.com/,"en-GB,en;q=0.9,en-US;q=0.8,ja;q=0.7,es;q=0.6",n727gy,"[""exposure_4s_8.mp3""]",exposure,,exp_noresponse,,,,,,
null,null,audio-keyboard-response,48,793886,0.0-16.0-31.0,10,tonic Bb4,2024-06-01 11:59:47,d6d641a8381b51745ea9a774607a039e,86.14.69.172,"Mozilla/5.0 (Windows NT 10.0; Win64; x64) AppleWebKit/537.36 (KHTML, like Gecko) Chrome/125.0.0.0 Safari/537.36",WebKit,Chrome,125.0.0.0,Windows,10.0,https://app.prolific.com/,"en-GB,en;q=0.9,en-US;q=0.8,ja;q=0.7,es;q=0.6",n727gy,"[""exposure_4s_10.mp3""]",exposure,,exp_noresponse,,,,,,
null,null,audio-keyboard-response,49,817312,0.0-16.0-32.0,10,tonic Bb4,2024-06-01 11:59:47,d6d641a8381b51745ea9a774607a039e,86.14.69.172,"Mozilla/5.0 (Windows NT 10.0; Win64; x64) AppleWebKit/537.36 (KHTML, like Gecko) Chrome/125.0.0.0 Safari/537.36",WebKit,Chrome,125.0.0.0,Windows,10.0,https://app.prolific.com/,"en-GB,en;q=0.9,en-US;q=0.8,ja;q=0.7,es;q=0.6",n727gy,"[""exposure_4s_37.mp3""]",exposure,,exp_noresponse,,,,,,
null,null,audio-keyboard-response,50,840438,0.0-16.0-33.0,10,tonic Bb4,2024-06-01 11:59:47,d6d641a8381b51745ea9a774607a039e,86.14.69.172,"Mozilla/5.0 (Windows NT 10.0; Win64; x64) AppleWebKit/537.36 (KHTML, like Gecko) Chrome/125.0.0.0 Safari/537.36",WebKit,Chrome,125.0.0.0,Windows,10.0,https://app.prolific.com/,"en-GB,en;q=0.9,en-US;q=0.8,ja;q=0.7,es;q=0.6",n727gy,"[""exposure_4s_34.mp3""]",exposure,,exp_noresponse,,,,,,
null,null,audio-keyboard-response,51,863545,0.0-16.0-34.0,10,tonic Bb4,2024-06-01 11:59:47,d6d641a8381b51745ea9a774607a039e,86.14.69.172,"Mozilla/5.0 (Windows NT 10.0; Win64; x64) AppleWebKit/537.36 (KHTML, like Gecko) Chrome/125.0.0.0 Safari/537.36",WebKit,Chrome,125.0.0.0,Windows,10.0,https://app.prolific.com/,"en-GB,en;q=0.9,en-US;q=0.8,ja;q=0.7,es;q=0.6",n727gy,"[""exposure_4s_9.mp3""]",exposure,,exp_noresponse,,,,,,
null,null,audio-keyboard-response,52,886553,0.0-16.0-35.0,10,tonic Bb4,2024-06-01 11:59:47,d6d641a8381b51745ea9a774607a039e,86.14.69.172,"Mozilla/5.0 (Windows NT 10.0; Win64; x64) AppleWebKit/537.36 (KHTML, like Gecko) Chrome/125.0.0.0 Safari/537.36",WebKit,Chrome,125.0.0.0,Windows,10.0,https://app.prolific.com/,"en-GB,en;q=0.9,en-US;q=0.8,ja;q=0.7,es;q=0.6",n727gy,"[""exposure_4s_39.mp3""]",exposure,,exp_noresponse,,,,,,
null,null,audio-keyboard-response,53,909658,0.0-16.0-36.0,10,tonic Bb4,2024-06-01 11:59:47,d6d641a8381b51745ea9a774607a039e,86.14.69.172,"Mozilla/5.0 (Windows NT 10.0; Win64; x64) AppleWebKit/537.36 (KHTML, like Gecko) Chrome/125.0.0.0 Safari/537.36",WebKit,Chrome,125.0.0.0,Windows,10.0,https://app.prolific.com/,"en-GB,en;q=0.9,en-US;q=0.8,ja;q=0.7,es;q=0.6",n727gy,"[""exposure_4s_41.mp3""]",exposure,,exp_noresponse,,,,,,
null,null,audio-keyboard-response,54,932764,0.0-16.0-37.0,10,tonic Bb4,2024-06-01 11:59:47,d6d641a8381b51745ea9a774607a039e,86.14.69.172,"Mozilla/5.0 (Windows NT 10.0; Win64; x64) AppleWebKit/537.36 (KHTML, like Gecko) Chrome/125.0.0.0 Safari/537.36",WebKit,Chrome,125.0.0.0,Windows,10.0,https://app.prolific.com/,"en-GB,en;q=0.9,en-US;q=0.8,ja;q=0.7,es;q=0.6",n727gy,"[""exposure_4s_24.mp3""]",exposure,,exp_noresponse,,,,,,
null,null,audio-keyboard-response,55,955879,0.0-16.0-38.0,10,tonic Bb4,2024-06-01 11:59:47,d6d641a8381b51745ea9a774607a039e,86.14.69.172,"Mozilla/5.0 (Windows NT 10.0; Win64; x64) AppleWebKit/537.36 (KHTML, like Gecko) Chrome/125.0.0.0 Safari/537.36",WebKit,Chrome,125.0.0.0,Windows,10.0,https://app.prolific.com/,"en-GB,en;q=0.9,en-US;q=0.8,ja;q=0.7,es;q=0.6",n727gy,"[""exposure_4s_11.mp3""]",exposure,,exp_noresponse,,,,,,
7528,1,audio-button-response,56,963409,0.0-16.0-39.0,10,tonic Bb4,2024-06-01 11:59:47,d6d641a8381b51745ea9a774607a039e,86.14.69.172,"Mozilla/5.0 (Windows NT 10.0; Win64; x64) AppleWebKit/537.36 (KHTML, like Gecko) Chrome/125.0.0.0 Safari/537.36",WebKit,Chrome,125.0.0.0,Windows,10.0,https://app.prolific.com/,"en-GB,en;q=0.9,en-US;q=0.8,ja;q=0.7,es;q=0.6",n727gy,attn_length_int_1.mp3,exposure,true,attncheck,,,,,,
7851,1,audio-button-response,57,971260,0.0-16.0-40.0,10,tonic Bb4,2024-06-01 11:59:47,d6d641a8381b51745ea9a774607a039e,86.14.69.172,"Mozilla/5.0 (Windows NT 10.0; Win64; x64) AppleWebKit/537.36 (KHTML, like Gecko) Chrome/125.0.0.0 Safari/537.36",WebKit,Chrome,125.0.0.0,Windows,10.0,https://app.prolific.com/,"en-GB,en;q=0.9,en-US;q=0.8,ja;q=0.7,es;q=0.6",n727gy,attn_length_easy_1.mp3,exposure,true,attncheck,,,,,,
789,1,audio-button-response,58,972049,0.0-16.0-41.0,10,tonic Bb4,2024-06-01 11:59:47,d6d641a8381b51745ea9a774607a039e,86.14.69.172,"Mozilla/5.0 (Windows NT 10.0; Win64; x64) AppleWebKit/537.36 (KHTML, like Gecko) Chrome/125.0.0.0 Safari/537.36",WebKit,Chrome,125.0.0.0,Windows,10.0,https://app.prolific.com/,"en-GB,en;q=0.9,en-US;q=0.8,ja;q=0.7,es;q=0.6",n727gy,attn_length_easy_1.mp3,exposure,true,attncheck,,,,,,
8541,1,audio-button-response,59,980592,0.0-16.0-42.0,10,tonic Bb4,2024-06-01 11:59:47,d6d641a8381b51745ea9a774607a039e,86.14.69.172,"Mozilla/5.0 (Windows NT 10.0; Win64; x64) AppleWebKit/537.36 (KHTML, like Gecko) Chrome/125.0.0.0 Safari/537.36",WebKit,Chrome,125.0.0.0,Windows,10.0,https://app.prolific.com/,"en-GB,en;q=0.9,en-US;q=0.8,ja;q=0.7,es;q=0.6",n727gy,attn_length_easy_1.mp3,exposure,true,attncheck,,,,,,
null,null,audio-keyboard-response,60,1003693,0.0-16.0-43.0,10,tonic Bb4,2024-06-01 11:59:47,d6d641a8381b51745ea9a774607a039e,86.14.69.172,"Mozilla/5.0 (Windows NT 10.0; Win64; x64) AppleWebKit/537.36 (KHTML, like Gecko) Chrome/125.0.0.0 Safari/537.36",WebKit,Chrome,125.0.0.0,Windows,10.0,https://app.prolific.com/,"en-GB,en;q=0.9,en-US;q=0.8,ja;q=0.7,es;q=0.6",n727gy,"[""exposure_4s_18.mp3""]",exposure,,exp_noresponse,,,,,,
null,null,audio-keyboard-response,61,1026703,0.0-16.0-44.0,10,tonic Bb4,2024-06-01 11:59:47,d6d641a8381b51745ea9a774607a039e,86.14.69.172,"Mozilla/5.0 (Windows NT 10.0; Win64; x64) AppleWebKit/537.36 (KHTML, like Gecko) Chrome/125.0.0.0 Safari/537.36",WebKit,Chrome,125.0.0.0,Windows,10.0,https://app.prolific.com/,"en-GB,en;q=0.9,en-US;q=0.8,ja;q=0.7,es;q=0.6",n727gy,"[""exposure_4s_41.mp3""]",exposure,,exp_noresponse,,,,,,
null,null,audio-keyboard-response,62,1049710,0.0-16.0-45.0,10,tonic Bb4,2024-06-01 11:59:47,d6d641a8381b51745ea9a774607a039e,86.14.69.172,"Mozilla/5.0 (Windows NT 10.0; Win64; x64) AppleWebKit/537.36 (KHTML, like Gecko) Chrome/125.0.0.0 Safari/537.36",WebKit,Chrome,125.0.0.0,Windows,10.0,https://app.prolific.com/,"en-GB,en;q=0.9,en-US;q=0.8,ja;q=0.7,es;q=0.6",n727gy,"[""exposure_4s_10.mp3""]",exposure,,exp_noresponse,,,,,,
8611,1,audio-button-response,63,1058321,0.0-16.0-46.0,10,tonic Bb4,2024-06-01 11:59:47,d6d641a8381b51745ea9a774607a039e,86.14.69.172,"Mozilla/5.0 (Windows NT 10.0; Win64; x64) AppleWebKit/537.36 (KHTML, like Gecko) Chrome/125.0.0.0 Safari/537.36",WebKit,Chrome,125.0.0.0,Windows,10.0,https://app.prolific.com/,"en-GB,en;q=0.9,en-US;q=0.8,ja;q=0.7,es;q=0.6",n727gy,attn_length_easy_1.mp3,exposure,true,attncheck,,,,,,
null,null,audio-keyboard-response,64,1081428,0.0-16.0-47.0,10,tonic Bb4,2024-06-01 11:59:47,d6d641a8381b51745ea9a774607a039e,86.14.69.172,"Mozilla/5.0 (Windows NT 10.0; Win64; x64) AppleWebKit/537.36 (KHTML, like Gecko) Chrome/125.0.0.0 Safari/537.36",WebKit,Chrome,125.0.0.0,Windows,10.0,https://app.prolific.com/,"en-GB,en;q=0.9,en-US;q=0.8,ja;q=0.7,es;q=0.6",n727gy,"[""exposure_4s_2.mp3""]",exposure,,exp_noresponse,,,,,,
null,null,audio-keyboard-response,65,1104433,0.0-16.0-48.0,10,tonic Bb4,2024-06-01 11:59:47,d6d641a8381b51745ea9a774607a039e,86.14.69.172,"Mozilla/5.0 (Windows NT 10.0; Win64; x64) AppleWebKit/537.36 (KHTML, like Gecko) Chrome/125.0.0.0 Safari/537.36",WebKit,Chrome,125.0.0.0,Windows,10.0,https://app.prolific.com/,"en-GB,en;q=0.9,en-US;q=0.8,ja;q=0.7,es;q=0.6",n727gy,"[""exposure_4s_39.mp3""]",exposure,,exp_noresponse,,,,,,
8509,1,audio-button-response,66,1112941,0.0-16.0-49.0,10,tonic Bb4,2024-06-01 11:59:47,d6d641a8381b51745ea9a774607a039e,86.14.69.172,"Mozilla/5.0 (Windows NT 10.0; Win64; x64) AppleWebKit/537.36 (KHTML, like Gecko) Chrome/125.0.0.0 Safari/537.36",WebKit,Chrome,125.0.0.0,Windows,10.0,https://app.prolific.com/,"en-GB,en;q=0.9,en-US;q=0.8,ja;q=0.7,es;q=0.6",n727gy,attn_length_easy_1.mp3,exposure,true,attncheck,,,,,,
8381,1,audio-button-response,67,1121327,0.0-16.0-50.0,10,tonic Bb4,2024-06-01 11:59:47,d6d641a8381b51745ea9a774607a039e,86.14.69.172,"Mozilla/5.0 (Windows NT 10.0; Win64; x64) AppleWebKit/537.36 (KHTML, like Gecko) Chrome/125.0.0.0 Safari/537.36",WebKit,Chrome,125.0.0.0,Windows,10.0,https://app.prolific.com/,"en-GB,en;q=0.9,en-US;q=0.8,ja;q=0.7,es;q=0.6",n727gy,attn_length_easy_1.mp3,exposure,true,attncheck,,,,,,
null,null,audio-keyboard-response,68,1144433,0.0-16.0-51.0,10,tonic Bb4,2024-06-01 11:59:47,d6d641a8381b51745ea9a774607a039e,86.14.69.172,"Mozilla/5.0 (Windows NT 10.0; Win64; x64) AppleWebKit/537.36 (KHTML, like Gecko) Chrome/125.0.0.0 Safari/537.36",WebKit,Chrome,125.0.0.0,Windows,10.0,https://app.prolific.com/,"en-GB,en;q=0.9,en-US;q=0.8,ja;q=0.7,es;q=0.6",n727gy,"[""exposure_4s_36.mp3""]",exposure,,exp_noresponse,,,,,,
null,null,audio-keyboard-response,69,1167539,0.0-16.0-52.0,10,tonic Bb4,2024-06-01 11:59:47,d6d641a8381b51745ea9a774607a039e,86.14.69.172,"Mozilla/5.0 (Windows NT 10.0; Win64; x64) AppleWebKit/537.36 (KHTML, like Gecko) Chrome/125.0.0.0 Safari/537.36",WebKit,Chrome,125.0.0.0,Windows,10.0,https://app.prolific.com/,"en-GB,en;q=0.9,en-US;q=0.8,ja;q=0.7,es;q=0.6",n727gy,"[""exposure_4s_14.mp3""]",exposure,,exp_noresponse,,,,,,
null,null,audio-keyboard-response,70,1190556,0.0-16.0-53.0,10,tonic Bb4,2024-06-01 11:59:47,d6d641a8381b51745ea9a774607a039e,86.14.69.172,"Mozilla/5.0 (Windows NT 10.0; Win64; x64) AppleWebKit/537.36 (KHTML, like Gecko) Chrome/125.0.0.0 Safari/537.36",WebKit,Chrome,125.0.0.0,Windows,10.0,https://app.prolific.com/,"en-GB,en;q=0.9,en-US;q=0.8,ja;q=0.7,es;q=0.6",n727gy,"[""exposure_4s_11.mp3""]",exposure,,exp_noresponse,,,,,,
4741,5,audio-slider-response,71,1195354,0.0-16.0-54.0,10,tonic Bb4,2024-06-01 11:59:47,d6d641a8381b51745ea9a774607a039e,86.14.69.172,"Mozilla/5.0 (Windows NT 10.0; Win64; x64) AppleWebKit/537.36 (KHTML, like Gecko) Chrome/125.0.0.0 Safari/537.36",WebKit,Chrome,125.0.0.0,Windows,10.0,https://app.prolific.com/,"en-GB,en;q=0.9,en-US;q=0.8,ja;q=0.7,es;q=0.6",n727gy,"[""grammatical_7.mp3""]",exposure,,exp_liking,4,,,,,
null,null,audio-keyboard-response,72,1218361,0.0-16.0-55.0,10,tonic Bb4,2024-06-01 11:59:47,d6d641a8381b51745ea9a774607a039e,86.14.69.172,"Mozilla/5.0 (Windows NT 10.0; Win64; x64) AppleWebKit/537.36 (KHTML, like Gecko) Chrome/125.0.0.0 Safari/537.36",WebKit,Chrome,125.0.0.0,Windows,10.0,https://app.prolific.com/,"en-GB,en;q=0.9,en-US;q=0.8,ja;q=0.7,es;q=0.6",n727gy,"[""exposure_4s_7.mp3""]",exposure,,exp_noresponse,,,,,,
null,null,audio-keyboard-response,73,1241469,0.0-16.0-56.0,10,tonic Bb4,2024-06-01 11:59:47,d6d641a8381b51745ea9a774607a039e,86.14.69.172,"Mozilla/5.0 (Windows NT 10.0; Win64; x64) AppleWebKit/537.36 (KHTML, like Gecko) Chrome/125.0.0.0 Safari/537.36",WebKit,Chrome,125.0.0.0,Windows,10.0,https://app.prolific.com/,"en-GB,en;q=0.9,en-US;q=0.8,ja;q=0.7,es;q=0.6",n727gy,"[""exposure_4s_42.mp3""]",exposure,,exp_noresponse,,,,,,
8771,1,audio-button-response,74,1250242,0.0-16.0-57.0,10,tonic Bb4,2024-06-01 11:59:47,d6d641a8381b51745ea9a774607a039e,86.14.69.172,"Mozilla/5.0 (Windows NT 10.0; Win64; x64) AppleWebKit/537.36 (KHTML, like Gecko) Chrome/125.0.0.0 Safari/537.36",WebKit,Chrome,125.0.0.0,Windows,10.0,https://app.prolific.com/,"en-GB,en;q=0.9,en-US;q=0.8,ja;q=0.7,es;q=0.6",n727gy,attn_length_easy_1.mp3,exposure,true,attncheck,,,,,,
null,null,audio-keyboard-response,75,1273251,0.0-16.0-58.0,10,tonic Bb4,2024-06-01 11:59:47,d6d641a8381b51745ea9a774607a039e,86.14.69.172,"Mozilla/5.0 (Windows NT 10.0; Win64; x64) AppleWebKit/537.36 (KHTML, like Gecko) Chrome/125.0.0.0 Safari/537.36",WebKit,Chrome,125.0.0.0,Windows,10.0,https://app.prolific.com/,"en-GB,en;q=0.9,en-US;q=0.8,ja;q=0.7,es;q=0.6",n727gy,"[""exposure_4s_9.mp3""]",exposure,,exp_noresponse,,,,,,
8600,1,audio-button-response,76,1281847,0.0-16.0-59.0,10,tonic Bb4,2024-06-01 11:59:47,d6d641a8381b51745ea9a774607a039e,86.14.69.172,"Mozilla/5.0 (Windows NT 10.0; Win64; x64) AppleWebKit/537.36 (KHTML, like Gecko) Chrome/125.0.0.0 Safari/537.36",WebKit,Chrome,125.0.0.0,Windows,10.0,https://app.prolific.com/,"en-GB,en;q=0.9,en-US;q=0.8,ja;q=0.7,es;q=0.6",n727gy,attn_length_easy_1.mp3,exposure,true,attncheck,,,,,,
3633, ,html-keyboard-response,77,1285482,0.0-17.0,10,tonic Bb4,2024-06-01 11:59:47,d6d641a8381b51745ea9a774607a039e,86.14.69.172,"Mozilla/5.0 (Windows NT 10.0; Win64; x64) AppleWebKit/537.36 (KHTML, like Gecko) Chrome/125.0.0.0 Safari/537.36",WebKit,Chrome,125.0.0.0,Windows,10.0,https://app.prolific.com/,"en-GB,en;q=0.9,en-US;q=0.8,ja;q=0.7,es;q=0.6",n727gy,"<p>You will now be asked to judge how similar some melodies are to what you have
    just listened to. </p>
    <p><b>Press the space bar to continue.</b></p>",,,,,,,,,
2880, ,html-keyboard-response,78,1288363,0.0-18.0,10,tonic Bb4,2024-06-01 11:59:47,d6d641a8381b51745ea9a774607a039e,86.14.69.172,"Mozilla/5.0 (Windows NT 10.0; Win64; x64) AppleWebKit/537.36 (KHTML, like Gecko) Chrome/125.0.0.0 Safari/537.36",WebKit,Chrome,125.0.0.0,Windows,10.0,https://app.prolific.com/,"en-GB,en;q=0.9,en-US;q=0.8,ja;q=0.7,es;q=0.6",n727gy,"<p>The changes in the melodies are subtle. If you are not sure, go with your gut feeling.</p>
    <p><b>Press the space bar to continue.</b></p>",,,,,,,,,
5949,7,audio-slider-response,79,1294314,0.0-19.0-0.0,10,tonic Bb4,2024-06-01 11:59:47,d6d641a8381b51745ea9a774607a039e,86.14.69.172,"Mozilla/5.0 (Windows NT 10.0; Win64; x64) AppleWebKit/537.36 (KHTML, like Gecko) Chrome/125.0.0.0 Safari/537.36",WebKit,Chrome,125.0.0.0,Windows,10.0,https://app.prolific.com/,"en-GB,en;q=0.9,en-US;q=0.8,ja;q=0.7,es;q=0.6",n727gy,grammatical_1.mp3,grammar_learning,,,4,,,,,
6981,7,audio-slider-response,80,1301355,0.0-19.0-0.1,10,tonic Bb4,2024-06-01 11:59:47,d6d641a8381b51745ea9a774607a039e,86.14.69.172,"Mozilla/5.0 (Windows NT 10.0; Win64; x64) AppleWebKit/537.36 (KHTML, like Gecko) Chrome/125.0.0.0 Safari/537.36",WebKit,Chrome,125.0.0.0,Windows,10.0,https://app.prolific.com/,"en-GB,en;q=0.9,en-US;q=0.8,ja;q=0.7,es;q=0.6",n727gy,agrammatical_4.mp3,grammar_learning,,,4,,,,,
6131,7,audio-slider-response,81,1307481,0.0-19.0-0.2,10,tonic Bb4,2024-06-01 11:59:47,d6d641a8381b51745ea9a774607a039e,86.14.69.172,"Mozilla/5.0 (Windows NT 10.0; Win64; x64) AppleWebKit/537.36 (KHTML, like Gecko) Chrome/125.0.0.0 Safari/537.36",WebKit,Chrome,125.0.0.0,Windows,10.0,https://app.prolific.com/,"en-GB,en;q=0.9,en-US;q=0.8,ja;q=0.7,es;q=0.6",n727gy,grammatical_3.mp3,grammar_learning,,,4,,,,,
6680,7,audio-slider-response,82,1314216,0.0-19.0-0.3,10,tonic Bb4,2024-06-01 11:59:47,d6d641a8381b51745ea9a774607a039e,86.14.69.172,"Mozilla/5.0 (Windows NT 10.0; Win64; x64) AppleWebKit/537.36 (KHTML, like Gecko) Chrome/125.0.0.0 Safari/537.36",WebKit,Chrome,125.0.0.0,Windows,10.0,https://app.prolific.com/,"en-GB,en;q=0.9,en-US;q=0.8,ja;q=0.7,es;q=0.6",n727gy,grammatical_8.mp3,grammar_learning,,,4,,,,,
7221,7,audio-slider-response,83,1321439,0.0-19.0-0.4,10,tonic Bb4,2024-06-01 11:59:47,d6d641a8381b51745ea9a774607a039e,86.14.69.172,"Mozilla/5.0 (Windows NT 10.0; Win64; x64) AppleWebKit/537.36 (KHTML, like Gecko) Chrome/125.0.0.0 Safari/537.36",WebKit,Chrome,125.0.0.0,Windows,10.0,https://app.prolific.com/,"en-GB,en;q=0.9,en-US;q=0.8,ja;q=0.7,es;q=0.6",n727gy,grammatical_2.mp3,grammar_learning,,,4,,,,,
6701,7,audio-slider-response,84,1328196,0.0-19.0-0.5,10,tonic Bb4,2024-06-01 11:59:47,d6d641a8381b51745ea9a774607a039e,86.14.69.172,"Mozilla/5.0 (Windows NT 10.0; Win64; x64) AppleWebKit/537.36 (KHTML, like Gecko) Chrome/125.0.0.0 Safari/537.36",WebKit,Chrome,125.0.0.0,Windows,10.0,https://app.prolific.com/,"en-GB,en;q=0.9,en-US;q=0.8,ja;q=0.7,es;q=0.6",n727gy,agrammatical_2.mp3,grammar_learning,,,4,,,,,
8680,6,audio-slider-response,85,1336928,0.0-19.0-0.6,10,tonic Bb4,2024-06-01 11:59:47,d6d641a8381b51745ea9a774607a039e,86.14.69.172,"Mozilla/5.0 (Windows NT 10.0; Win64; x64) AppleWebKit/537.36 (KHTML, like Gecko) Chrome/125.0.0.0 Safari/537.36",WebKit,Chrome,125.0.0.0,Windows,10.0,https://app.prolific.com/,"en-GB,en;q=0.9,en-US;q=0.8,ja;q=0.7,es;q=0.6",n727gy,agrammatical_6.mp3,grammar_learning,,,4,,,,,
7629,7,audio-slider-response,86,1344613,0.0-19.0-0.7,10,tonic Bb4,2024-06-01 11:59:47,d6d641a8381b51745ea9a774607a039e,86.14.69.172,"Mozilla/5.0 (Windows NT 10.0; Win64; x64) AppleWebKit/537.36 (KHTML, like Gecko) Chrome/125.0.0.0 Safari/537.36",WebKit,Chrome,125.0.0.0,Windows,10.0,https://app.prolific.com/,"en-GB,en;q=0.9,en-US;q=0.8,ja;q=0.7,es;q=0.6",n727gy,grammatical_6.mp3,grammar_learning,,,4,,,,,
6181,7,audio-slider-response,87,1350840,0.0-19.0-0.8,10,tonic Bb4,2024-06-01 11:59:47,d6d641a8381b51745ea9a774607a039e,86.14.69.172,"Mozilla/5.0 (Windows NT 10.0; Win64; x64) AppleWebKit/537.36 (KHTML, like Gecko) Chrome/125.0.0.0 Safari/537.36",WebKit,Chrome,125.0.0.0,Windows,10.0,https://app.prolific.com/,"en-GB,en;q=0.9,en-US;q=0.8,ja;q=0.7,es;q=0.6",n727gy,agrammatical_3.mp3,grammar_learning,,,4,,,,,
6131,7,audio-slider-response,88,1357023,0.0-19.0-0.9,10,tonic Bb4,2024-06-01 11:59:47,d6d641a8381b51745ea9a774607a039e,86.14.69.172,"Mozilla/5.0 (Windows NT 10.0; Win64; x64) AppleWebKit/537.36 (KHTML, like Gecko) Chrome/125.0.0.0 Safari/537.36",WebKit,Chrome,125.0.0.0,Windows,10.0,https://app.prolific.com/,"en-GB,en;q=0.9,en-US;q=0.8,ja;q=0.7,es;q=0.6",n727gy,agrammatical_7.mp3,grammar_learning,,,4,,,,,
7139,6,audio-slider-response,89,1364225,0.0-19.0-0.10,10,tonic Bb4,2024-06-01 11:59:47,d6d641a8381b51745ea9a774607a039e,86.14.69.172,"Mozilla/5.0 (Windows NT 10.0; Win64; x64) AppleWebKit/537.36 (KHTML, like Gecko) Chrome/125.0.0.0 Safari/537.36",WebKit,Chrome,125.0.0.0,Windows,10.0,https://app.prolific.com/,"en-GB,en;q=0.9,en-US;q=0.8,ja;q=0.7,es;q=0.6",n727gy,agrammatical_8.mp3,grammar_learning,,,4,,,,,
6211,7,audio-slider-response,90,1370430,0.0-19.0-0.11,10,tonic Bb4,2024-06-01 11:59:47,d6d641a8381b51745ea9a774607a039e,86.14.69.172,"Mozilla/5.0 (Windows NT 10.0; Win64; x64) AppleWebKit/537.36 (KHTML, like Gecko) Chrome/125.0.0.0 Safari/537.36",WebKit,Chrome,125.0.0.0,Windows,10.0,https://app.prolific.com/,"en-GB,en;q=0.9,en-US;q=0.8,ja;q=0.7,es;q=0.6",n727gy,grammatical_7.mp3,grammar_learning,,,4,,,,,
7029,7,audio-slider-response,91,1377515,0.0-19.0-0.12,10,tonic Bb4,2024-06-01 11:59:47,d6d641a8381b51745ea9a774607a039e,86.14.69.172,"Mozilla/5.0 (Windows NT 10.0; Win64; x64) AppleWebKit/537.36 (KHTML, like Gecko) Chrome/125.0.0.0 Safari/537.36",WebKit,Chrome,125.0.0.0,Windows,10.0,https://app.prolific.com/,"en-GB,en;q=0.9,en-US;q=0.8,ja;q=0.7,es;q=0.6",n727gy,agrammatical_1.mp3,grammar_learning,,,4,,,,,
