,rt,response,trial_type,trial_index,time_elapsed,internal_node_id,run_id,condition,recorded_at,source_code_version,ip,user_agent,device,browser,browser_version,platform,platform_version,referer,accept_language,subject,stimulus,task,correct,subtask,slider_start,accent,high_IC,accent_chosen,high_IC_chosen,question_order
0,6541.0,"{""prolific_id"":""571b79495d40840009c448fe""}",survey-html-form,0,6545,0.0-0.0,11,tonic C5,2024-05-31 14:16:45,69c1fe8e8766760338ed5ecbe911aaa3,82.31.246.252,"Mozilla/5.0 (Windows NT 10.0; Win64; x64) AppleWebKit/537.36 (KHTML, like Gecko) Chrome/125.0.0.0 Safari/537.36",WebKit,Chrome,125.0.0.0,Windows,10.0,https://app.prolific.com/,"en-US,en;q=0.9",wrywed,,,,,,,,,,
1,6697.0, ,html-keyboard-response,1,13245,0.0-1.0,11,tonic C5,2024-05-31 14:16:45,69c1fe8e8766760338ed5ecbe911aaa3,82.31.246.252,"Mozilla/5.0 (Windows NT 10.0; Win64; x64) AppleWebKit/537.36 (KHTML, like Gecko) Chrome/125.0.0.0 Safari/537.36",WebKit,Chrome,125.0.0.0,Windows,10.0,https://app.prolific.com/,"en-US,en;q=0.9",wrywed,"
    <p>Please complete the experiment in a quiet place.
      We highly recommend using headphones.</p>

    </p align = 'justify'> <b>Press the space bar to proceed.</b> </p>",,,,,,,,,
2,2797.0, ,html-keyboard-response,2,16042,0.0-2.0,11,tonic C5,2024-05-31 14:16:45,69c1fe8e8766760338ed5ecbe911aaa3,82.31.246.252,"Mozilla/5.0 (Windows NT 10.0; Win64; x64) AppleWebKit/537.36 (KHTML, like Gecko) Chrome/125.0.0.0 Safari/537.36",WebKit,Chrome,125.0.0.0,Windows,10.0,https://app.prolific.com/,"en-US,en;q=0.9",wrywed,"
    <p>A series of soundchecks will now be played to help you adjust the volume
      to a comfortable level. </p>

    </p align = 'justify'> <b>Press the space bar to proceed.</b> </p>",,,,,,,,,
3,7275.0,0,audio-button-response,3,23695,0.0-3.0-0.0,11,tonic C5,2024-05-31 14:16:45,69c1fe8e8766760338ed5ecbe911aaa3,82.31.246.252,"Mozilla/5.0 (Windows NT 10.0; Win64; x64) AppleWebKit/537.36 (KHTML, like Gecko) Chrome/125.0.0.0 Safari/537.36",WebKit,Chrome,125.0.0.0,Windows,10.0,https://app.prolific.com/,"en-US,en;q=0.9",wrywed,grammatical_1.mp3,,,,,,,,,
4,4811.0,1,audio-button-response,4,28510,0.0-3.1-0.1,11,tonic C5,2024-05-31 14:16:45,69c1fe8e8766760338ed5ecbe911aaa3,82.31.246.252,"Mozilla/5.0 (Windows NT 10.0; Win64; x64) AppleWebKit/537.36 (KHTML, like Gecko) Chrome/125.0.0.0 Safari/537.36",WebKit,Chrome,125.0.0.0,Windows,10.0,https://app.prolific.com/,"en-US,en;q=0.9",wrywed,grammatical_1.mp3,,,,,,,,,
5,8384.0, ,html-keyboard-response,5,36895,0.0-4.0,11,tonic C5,2024-05-31 14:16:45,69c1fe8e8766760338ed5ecbe911aaa3,82.31.246.252,"Mozilla/5.0 (Windows NT 10.0; Win64; x64) AppleWebKit/537.36 (KHTML, like Gecko) Chrome/125.0.0.0 Safari/537.36",WebKit,Chrome,125.0.0.0,Windows,10.0,https://app.prolific.com/,"en-US,en;q=0.9",wrywed,"<p width = 300 px>
    You will now hear two melodies in succession. 
    The notes in each melody are the same, but there is an accent on one note for one of the melodies. 
    <b>Listen for which melody has the accent.</b>
    </p>
    
    Press the space bar to continue.",,,,,,,,,
6,4205.0, ,html-keyboard-response,6,41101,0.0-5.0,11,tonic C5,2024-05-31 14:16:45,69c1fe8e8766760338ed5ecbe911aaa3,82.31.246.252,"Mozilla/5.0 (Windows NT 10.0; Win64; x64) AppleWebKit/537.36 (KHTML, like Gecko) Chrome/125.0.0.0 Safari/537.36",WebKit,Chrome,125.0.0.0,Windows,10.0,https://app.prolific.com/,"en-US,en;q=0.9",wrywed,"<p width = 300 px>
    <b>You must score at least 2/3 to proceed with the experiment.</b>
    </p>
    
    Press the space bar to continue.",,,,,,,,,
7,7979.0,1,audio-button-response,7,49227,0.0-6.0,11,tonic C5,2024-05-31 14:16:45,69c1fe8e8766760338ed5ecbe911aaa3,82.31.246.252,"Mozilla/5.0 (Windows NT 10.0; Win64; x64) AppleWebKit/537.36 (KHTML, like Gecko) Chrome/125.0.0.0 Safari/537.36",WebKit,Chrome,125.0.0.0,Windows,10.0,https://app.prolific.com/,"en-US,en;q=0.9",wrywed,fc_accents_32_1.mp3,soundcheck,True,,,,,,,
8,3804.0, ,html-keyboard-response,8,53033,0.0-7.0,11,tonic C5,2024-05-31 14:16:45,69c1fe8e8766760338ed5ecbe911aaa3,82.31.246.252,"Mozilla/5.0 (Windows NT 10.0; Win64; x64) AppleWebKit/537.36 (KHTML, like Gecko) Chrome/125.0.0.0 Safari/537.36",WebKit,Chrome,125.0.0.0,Windows,10.0,https://app.prolific.com/,"en-US,en;q=0.9",wrywed,<p>Correct!</p> Press the space bar to continue.,,,,,,,,,
9,7072.0,1,audio-button-response,9,60249,0.0-8.0,11,tonic C5,2024-05-31 14:16:45,69c1fe8e8766760338ed5ecbe911aaa3,82.31.246.252,"Mozilla/5.0 (Windows NT 10.0; Win64; x64) AppleWebKit/537.36 (KHTML, like Gecko) Chrome/125.0.0.0 Safari/537.36",WebKit,Chrome,125.0.0.0,Windows,10.0,https://app.prolific.com/,"en-US,en;q=0.9",wrywed,fc_accents_56_4.mp3,soundcheck,True,,,,,,,
10,1334.0, ,html-keyboard-response,10,61584,0.0-9.0,11,tonic C5,2024-05-31 14:16:45,69c1fe8e8766760338ed5ecbe911aaa3,82.31.246.252,"Mozilla/5.0 (Windows NT 10.0; Win64; x64) AppleWebKit/537.36 (KHTML, like Gecko) Chrome/125.0.0.0 Safari/537.36",WebKit,Chrome,125.0.0.0,Windows,10.0,https://app.prolific.com/,"en-US,en;q=0.9",wrywed,<p>Correct!</p> Press the space bar to continue.,,,,,,,,,
11,5888.0,1,audio-button-response,11,67583,0.0-10.0,11,tonic C5,2024-05-31 14:16:45,69c1fe8e8766760338ed5ecbe911aaa3,82.31.246.252,"Mozilla/5.0 (Windows NT 10.0; Win64; x64) AppleWebKit/537.36 (KHTML, like Gecko) Chrome/125.0.0.0 Safari/537.36",WebKit,Chrome,125.0.0.0,Windows,10.0,https://app.prolific.com/,"en-US,en;q=0.9",wrywed,fc_accents_54_4.mp3,soundcheck,True,,,,,,,
12,1196.0, ,html-keyboard-response,12,68781,0.0-11.0,11,tonic C5,2024-05-31 14:16:45,69c1fe8e8766760338ed5ecbe911aaa3,82.31.246.252,"Mozilla/5.0 (Windows NT 10.0; Win64; x64) AppleWebKit/537.36 (KHTML, like Gecko) Chrome/125.0.0.0 Safari/537.36",WebKit,Chrome,125.0.0.0,Windows,10.0,https://app.prolific.com/,"en-US,en;q=0.9",wrywed,<p>Correct!</p> Press the space bar to continue.,,,,,,,,,
13,11783.0, ,html-keyboard-response,13,80565,0.0-12.0,11,tonic C5,2024-05-31 14:16:45,69c1fe8e8766760338ed5ecbe911aaa3,82.31.246.252,"Mozilla/5.0 (Windows NT 10.0; Win64; x64) AppleWebKit/537.36 (KHTML, like Gecko) Chrome/125.0.0.0 Safari/537.36",WebKit,Chrome,125.0.0.0,Windows,10.0,https://app.prolific.com/,"en-US,en;q=0.9",wrywed,"If you got <b>less than 2/3</b> of the previous soundcheck questions correct, <b>we unfortunately cannot use your data or pay you</b>. Please exit the experiment now.
    
    <p>If you got <b>more than 2/3</b> correct, press the space bar to continue</p>.",,,,,,,,,
14,6364.0, ,html-keyboard-response,14,86931,0.0-13.0,11,tonic C5,2024-05-31 14:16:45,69c1fe8e8766760338ed5ecbe911aaa3,82.31.246.252,"Mozilla/5.0 (Windows NT 10.0; Win64; x64) AppleWebKit/537.36 (KHTML, like Gecko) Chrome/125.0.0.0 Safari/537.36",WebKit,Chrome,125.0.0.0,Windows,10.0,https://app.prolific.com/,"en-US,en;q=0.9",wrywed,"<p>Please listen carefully to the following set of melodies. 
      You will occassionally be asked some basic questions about some of the melodies to check your attention level. </p>
    <p><b>Press the space bar to continue.</b></p>",,,,,,,,,
15,7136.0, ,html-keyboard-response,15,94068,0.0-14.0,11,tonic C5,2024-05-31 14:16:45,69c1fe8e8766760338ed5ecbe911aaa3,82.31.246.252,"Mozilla/5.0 (Windows NT 10.0; Win64; x64) AppleWebKit/537.36 (KHTML, like Gecko) Chrome/125.0.0.0 Safari/537.36",WebKit,Chrome,125.0.0.0,Windows,10.0,https://app.prolific.com/,"en-US,en;q=0.9",wrywed,"<p>The attention questions vary in difficulty, but you must get at least some questions correct for us to pay you.</p>
    <p><b>Press the space bar to continue.</b></p>",,,,,,,,,
16,2350.0, ,html-keyboard-response,16,96419,0.0-15.0,11,tonic C5,2024-05-31 14:16:45,69c1fe8e8766760338ed5ecbe911aaa3,82.31.246.252,"Mozilla/5.0 (Windows NT 10.0; Win64; x64) AppleWebKit/537.36 (KHTML, like Gecko) Chrome/125.0.0.0 Safari/537.36",WebKit,Chrome,125.0.0.0,Windows,10.0,https://app.prolific.com/,"en-US,en;q=0.9",wrywed,"
    This part of the experiment should take <b>15-20 minutes</b>. 
    <p><b>Press the space bar to begin.</b></p>",,,,,,,,,
17,,,audio-keyboard-response,17,119799,0.0-16.0-0.0,11,tonic C5,2024-05-31 14:16:45,69c1fe8e8766760338ed5ecbe911aaa3,82.31.246.252,"Mozilla/5.0 (Windows NT 10.0; Win64; x64) AppleWebKit/537.36 (KHTML, like Gecko) Chrome/125.0.0.0 Safari/537.36",WebKit,Chrome,125.0.0.0,Windows,10.0,https://app.prolific.com/,"en-US,en;q=0.9",wrywed,"[""exposure_4s_44.mp3""]",exposure,,exp_noresponse,,,,,,
18,,,audio-keyboard-response,18,143464,0.0-16.0-1.0,11,tonic C5,2024-05-31 14:16:45,69c1fe8e8766760338ed5ecbe911aaa3,82.31.246.252,"Mozilla/5.0 (Windows NT 10.0; Win64; x64) AppleWebKit/537.36 (KHTML, like Gecko) Chrome/125.0.0.0 Safari/537.36",WebKit,Chrome,125.0.0.0,Windows,10.0,https://app.prolific.com/,"en-US,en;q=0.9",wrywed,"[""exposure_4s_25.mp3""]",exposure,,exp_noresponse,,,,,,
19,,,audio-keyboard-response,19,166932,0.0-16.0-2.0,11,tonic C5,2024-05-31 14:16:45,69c1fe8e8766760338ed5ecbe911aaa3,82.31.246.252,"Mozilla/5.0 (Windows NT 10.0; Win64; x64) AppleWebKit/537.36 (KHTML, like Gecko) Chrome/125.0.0.0 Safari/537.36",WebKit,Chrome,125.0.0.0,Windows,10.0,https://app.prolific.com/,"en-US,en;q=0.9",wrywed,"[""exposure_4s_12.mp3""]",exposure,,exp_noresponse,,,,,,
20,,,audio-keyboard-response,20,190325,0.0-16.0-3.0,11,tonic C5,2024-05-31 14:16:45,69c1fe8e8766760338ed5ecbe911aaa3,82.31.246.252,"Mozilla/5.0 (Windows NT 10.0; Win64; x64) AppleWebKit/537.36 (KHTML, like Gecko) Chrome/125.0.0.0 Safari/537.36",WebKit,Chrome,125.0.0.0,Windows,10.0,https://app.prolific.com/,"en-US,en;q=0.9",wrywed,"[""exposure_4s_6.mp3""]",exposure,,exp_noresponse,,,,,,
21,,,audio-keyboard-response,21,213635,0.0-16.0-4.0,11,tonic C5,2024-05-31 14:16:45,69c1fe8e8766760338ed5ecbe911aaa3,82.31.246.252,"Mozilla/5.0 (Windows NT 10.0; Win64; x64) AppleWebKit/537.36 (KHTML, like Gecko) Chrome/125.0.0.0 Safari/537.36",WebKit,Chrome,125.0.0.0,Windows,10.0,https://app.prolific.com/,"en-US,en;q=0.9",wrywed,"[""exposure_4s_30.mp3""]",exposure,,exp_noresponse,,,,,,
22,1269.0, ,audio-keyboard-response,22,236989,0.0-16.0-5.0,11,tonic C5,2024-05-31 14:16:45,69c1fe8e8766760338ed5ecbe911aaa3,82.31.246.252,"Mozilla/5.0 (Windows NT 10.0; Win64; x64) AppleWebKit/537.36 (KHTML, like Gecko) Chrome/125.0.0.0 Safari/537.36",WebKit,Chrome,125.0.0.0,Windows,10.0,https://app.prolific.com/,"en-US,en;q=0.9",wrywed,"[""exposure_4s_21.mp3""]",exposure,,exp_noresponse,,,,,,
23,11285.0,1,audio-button-response,23,248526,0.0-16.0-6.0,11,tonic C5,2024-05-31 14:16:45,69c1fe8e8766760338ed5ecbe911aaa3,82.31.246.252,"Mozilla/5.0 (Windows NT 10.0; Win64; x64) AppleWebKit/537.36 (KHTML, like Gecko) Chrome/125.0.0.0 Safari/537.36",WebKit,Chrome,125.0.0.0,Windows,10.0,https://app.prolific.com/,"en-US,en;q=0.9",wrywed,attn_length_hard_1.mp3,exposure,True,attncheck,,,,,,
24,8395.0,1,audio-button-response,24,257109,0.0-16.0-7.0,11,tonic C5,2024-05-31 14:16:45,69c1fe8e8766760338ed5ecbe911aaa3,82.31.246.252,"Mozilla/5.0 (Windows NT 10.0; Win64; x64) AppleWebKit/537.36 (KHTML, like Gecko) Chrome/125.0.0.0 Safari/537.36",WebKit,Chrome,125.0.0.0,Windows,10.0,https://app.prolific.com/,"en-US,en;q=0.9",wrywed,attn_length_easy_1.mp3,exposure,True,attncheck,,,,,,
25,,,audio-keyboard-response,25,280657,0.0-16.0-8.0,11,tonic C5,2024-05-31 14:16:45,69c1fe8e8766760338ed5ecbe911aaa3,82.31.246.252,"Mozilla/5.0 (Windows NT 10.0; Win64; x64) AppleWebKit/537.36 (KHTML, like Gecko) Chrome/125.0.0.0 Safari/537.36",WebKit,Chrome,125.0.0.0,Windows,10.0,https://app.prolific.com/,"en-US,en;q=0.9",wrywed,"[""exposure_4s_31.mp3""]",exposure,,exp_noresponse,,,,,,
26,,,audio-keyboard-response,26,304140,0.0-16.0-9.0,11,tonic C5,2024-05-31 14:16:45,69c1fe8e8766760338ed5ecbe911aaa3,82.31.246.252,"Mozilla/5.0 (Windows NT 10.0; Win64; x64) AppleWebKit/537.36 (KHTML, like Gecko) Chrome/125.0.0.0 Safari/537.36",WebKit,Chrome,125.0.0.0,Windows,10.0,https://app.prolific.com/,"en-US,en;q=0.9",wrywed,"[""exposure_4s_43.mp3""]",exposure,,exp_noresponse,,,,,,
27,8352.0,1,audio-button-response,27,312499,0.0-16.0-10.0,11,tonic C5,2024-05-31 14:16:45,69c1fe8e8766760338ed5ecbe911aaa3,82.31.246.252,"Mozilla/5.0 (Windows NT 10.0; Win64; x64) AppleWebKit/537.36 (KHTML, like Gecko) Chrome/125.0.0.0 Safari/537.36",WebKit,Chrome,125.0.0.0,Windows,10.0,https://app.prolific.com/,"en-US,en;q=0.9",wrywed,attn_length_easy_1.mp3,exposure,True,attncheck,,,,,,
28,,,audio-keyboard-response,28,335887,0.0-16.0-11.0,11,tonic C5,2024-05-31 14:16:45,69c1fe8e8766760338ed5ecbe911aaa3,82.31.246.252,"Mozilla/5.0 (Windows NT 10.0; Win64; x64) AppleWebKit/537.36 (KHTML, like Gecko) Chrome/125.0.0.0 Safari/537.36",WebKit,Chrome,125.0.0.0,Windows,10.0,https://app.prolific.com/,"en-US,en;q=0.9",wrywed,"[""exposure_4s_40.mp3""]",exposure,,exp_noresponse,,,,,,
29,,,audio-keyboard-response,29,359356,0.0-16.0-12.0,11,tonic C5,2024-05-31 14:16:45,69c1fe8e8766760338ed5ecbe911aaa3,82.31.246.252,"Mozilla/5.0 (Windows NT 10.0; Win64; x64) AppleWebKit/537.36 (KHTML, like Gecko) Chrome/125.0.0.0 Safari/537.36",WebKit,Chrome,125.0.0.0,Windows,10.0,https://app.prolific.com/,"en-US,en;q=0.9",wrywed,"[""exposure_4s_8.mp3""]",exposure,,exp_noresponse,,,,,,
30,,,audio-keyboard-response,30,382859,0.0-16.0-13.0,11,tonic C5,2024-05-31 14:16:45,69c1fe8e8766760338ed5ecbe911aaa3,82.31.246.252,"Mozilla/5.0 (Windows NT 10.0; Win64; x64) AppleWebKit/537.36 (KHTML, like Gecko) Chrome/125.0.0.0 Safari/537.36",WebKit,Chrome,125.0.0.0,Windows,10.0,https://app.prolific.com/,"en-US,en;q=0.9",wrywed,"[""exposure_4s_5.mp3""]",exposure,,exp_noresponse,,,,,,
31,11221.0,5,audio-slider-response,31,394324,0.0-16.0-14.0,11,tonic C5,2024-05-31 14:16:45,69c1fe8e8766760338ed5ecbe911aaa3,82.31.246.252,"Mozilla/5.0 (Windows NT 10.0; Win64; x64) AppleWebKit/537.36 (KHTML, like Gecko) Chrome/125.0.0.0 Safari/537.36",WebKit,Chrome,125.0.0.0,Windows,10.0,https://app.prolific.com/,"en-US,en;q=0.9",wrywed,"[""grammatical_6.mp3""]",exposure,,exp_liking,4.0,,,,,
32,,,audio-keyboard-response,32,417644,0.0-16.0-15.0,11,tonic C5,2024-05-31 14:16:45,69c1fe8e8766760338ed5ecbe911aaa3,82.31.246.252,"Mozilla/5.0 (Windows NT 10.0; Win64; x64) AppleWebKit/537.36 (KHTML, like Gecko) Chrome/125.0.0.0 Safari/537.36",WebKit,Chrome,125.0.0.0,Windows,10.0,https://app.prolific.com/,"en-US,en;q=0.9",wrywed,"[""exposure_4s_45.mp3""]",exposure,,exp_noresponse,,,,,,
33,,,audio-keyboard-response,33,440961,0.0-16.0-16.0,11,tonic C5,2024-05-31 14:16:45,69c1fe8e8766760338ed5ecbe911aaa3,82.31.246.252,"Mozilla/5.0 (Windows NT 10.0; Win64; x64) AppleWebKit/537.36 (KHTML, like Gecko) Chrome/125.0.0.0 Safari/537.36",WebKit,Chrome,125.0.0.0,Windows,10.0,https://app.prolific.com/,"en-US,en;q=0.9",wrywed,"[""exposure_4s_19.mp3""]",exposure,,exp_noresponse,,,,,,
34,,,audio-keyboard-response,34,463980,0.0-16.0-17.0,11,tonic C5,2024-05-31 14:16:45,69c1fe8e8766760338ed5ecbe911aaa3,82.31.246.252,"Mozilla/5.0 (Windows NT 10.0; Win64; x64) AppleWebKit/537.36 (KHTML, like Gecko) Chrome/125.0.0.0 Safari/537.36",WebKit,Chrome,125.0.0.0,Windows,10.0,https://app.prolific.com/,"en-US,en;q=0.9",wrywed,"[""exposure_4s_40.mp3""]",exposure,,exp_noresponse,,,,,,
35,,,audio-keyboard-response,35,488091,0.0-16.0-18.0,11,tonic C5,2024-05-31 14:16:45,69c1fe8e8766760338ed5ecbe911aaa3,82.31.246.252,"Mozilla/5.0 (Windows NT 10.0; Win64; x64) AppleWebKit/537.36 (KHTML, like Gecko) Chrome/125.0.0.0 Safari/537.36",WebKit,Chrome,125.0.0.0,Windows,10.0,https://app.prolific.com/,"en-US,en;q=0.9",wrywed,"[""exposure_4s_16.mp3""]",exposure,,exp_noresponse,,,,,,
36,,,audio-keyboard-response,36,511099,0.0-16.0-19.0,11,tonic C5,2024-05-31 14:16:45,69c1fe8e8766760338ed5ecbe911aaa3,82.31.246.252,"Mozilla/5.0 (Windows NT 10.0; Win64; x64) AppleWebKit/537.36 (KHTML, like Gecko) Chrome/125.0.0.0 Safari/537.36",WebKit,Chrome,125.0.0.0,Windows,10.0,https://app.prolific.com/,"en-US,en;q=0.9",wrywed,"[""exposure_4s_6.mp3""]",exposure,,exp_noresponse,,,,,,
37,8320.0,1,audio-button-response,37,519421,0.0-16.0-20.0,11,tonic C5,2024-05-31 14:16:45,69c1fe8e8766760338ed5ecbe911aaa3,82.31.246.252,"Mozilla/5.0 (Windows NT 10.0; Win64; x64) AppleWebKit/537.36 (KHTML, like Gecko) Chrome/125.0.0.0 Safari/537.36",WebKit,Chrome,125.0.0.0,Windows,10.0,https://app.prolific.com/,"en-US,en;q=0.9",wrywed,attn_length_easy_1.mp3,exposure,True,attncheck,,,,,,
38,,,audio-keyboard-response,38,542908,0.0-16.0-21.0,11,tonic C5,2024-05-31 14:16:45,69c1fe8e8766760338ed5ecbe911aaa3,82.31.246.252,"Mozilla/5.0 (Windows NT 10.0; Win64; x64) AppleWebKit/537.36 (KHTML, like Gecko) Chrome/125.0.0.0 Safari/537.36",WebKit,Chrome,125.0.0.0,Windows,10.0,https://app.prolific.com/,"en-US,en;q=0.9",wrywed,"[""exposure_4s_32.mp3""]",exposure,,exp_noresponse,,,,,,
39,,,audio-keyboard-response,39,566483,0.0-16.0-22.0,11,tonic C5,2024-05-31 14:16:45,69c1fe8e8766760338ed5ecbe911aaa3,82.31.246.252,"Mozilla/5.0 (Windows NT 10.0; Win64; x64) AppleWebKit/537.36 (KHTML, like Gecko) Chrome/125.0.0.0 Safari/537.36",WebKit,Chrome,125.0.0.0,Windows,10.0,https://app.prolific.com/,"en-US,en;q=0.9",wrywed,"[""exposure_4s_24.mp3""]",exposure,,exp_noresponse,,,,,,
40,,,audio-keyboard-response,40,589494,0.0-16.0-23.0,11,tonic C5,2024-05-31 14:16:45,69c1fe8e8766760338ed5ecbe911aaa3,82.31.246.252,"Mozilla/5.0 (Windows NT 10.0; Win64; x64) AppleWebKit/537.36 (KHTML, like Gecko) Chrome/125.0.0.0 Safari/537.36",WebKit,Chrome,125.0.0.0,Windows,10.0,https://app.prolific.com/,"en-US,en;q=0.9",wrywed,"[""exposure_4s_5.mp3""]",exposure,,exp_noresponse,,,,,,
41,8395.0,1,audio-button-response,41,597896,0.0-16.0-24.0,11,tonic C5,2024-05-31 14:16:45,69c1fe8e8766760338ed5ecbe911aaa3,82.31.246.252,"Mozilla/5.0 (Windows NT 10.0; Win64; x64) AppleWebKit/537.36 (KHTML, like Gecko) Chrome/125.0.0.0 Safari/537.36",WebKit,Chrome,125.0.0.0,Windows,10.0,https://app.prolific.com/,"en-US,en;q=0.9",wrywed,attn_length_easy_1.mp3,exposure,True,attncheck,,,,,,
42,,,audio-keyboard-response,42,621228,0.0-16.0-25.0,11,tonic C5,2024-05-31 14:16:45,69c1fe8e8766760338ed5ecbe911aaa3,82.31.246.252,"Mozilla/5.0 (Windows NT 10.0; Win64; x64) AppleWebKit/537.36 (KHTML, like Gecko) Chrome/125.0.0.0 Safari/537.36",WebKit,Chrome,125.0.0.0,Windows,10.0,https://app.prolific.com/,"en-US,en;q=0.9",wrywed,"[""exposure_4s_35.mp3""]",exposure,,exp_noresponse,,,,,,
43,,,audio-keyboard-response,43,644641,0.0-16.0-26.0,11,tonic C5,2024-05-31 14:16:45,69c1fe8e8766760338ed5ecbe911aaa3,82.31.246.252,"Mozilla/5.0 (Windows NT 10.0; Win64; x64) AppleWebKit/537.36 (KHTML, like Gecko) Chrome/125.0.0.0 Safari/537.36",WebKit,Chrome,125.0.0.0,Windows,10.0,https://app.prolific.com/,"en-US,en;q=0.9",wrywed,"[""exposure_4s_20.mp3""]",exposure,,exp_noresponse,,,,,,
44,9269.0,1,audio-button-response,44,653917,0.0-16.0-27.0,11,tonic C5,2024-05-31 14:16:45,69c1fe8e8766760338ed5ecbe911aaa3,82.31.246.252,"Mozilla/5.0 (Windows NT 10.0; Win64; x64) AppleWebKit/537.36 (KHTML, like Gecko) Chrome/125.0.0.0 Safari/537.36",WebKit,Chrome,125.0.0.0,Windows,10.0,https://app.prolific.com/,"en-US,en;q=0.9",wrywed,attn_length_easy_1.mp3,exposure,True,attncheck,,,,,,
45,,,audio-keyboard-response,45,676923,0.0-16.0-28.0,11,tonic C5,2024-05-31 14:16:45,69c1fe8e8766760338ed5ecbe911aaa3,82.31.246.252,"Mozilla/5.0 (Windows NT 10.0; Win64; x64) AppleWebKit/537.36 (KHTML, like Gecko) Chrome/125.0.0.0 Safari/537.36",WebKit,Chrome,125.0.0.0,Windows,10.0,https://app.prolific.com/,"en-US,en;q=0.9",wrywed,"[""exposure_4s_19.mp3""]",exposure,,exp_noresponse,,,,,,
46,,,audio-keyboard-response,46,700236,0.0-16.0-29.0,11,tonic C5,2024-05-31 14:16:45,69c1fe8e8766760338ed5ecbe911aaa3,82.31.246.252,"Mozilla/5.0 (Windows NT 10.0; Win64; x64) AppleWebKit/537.36 (KHTML, like Gecko) Chrome/125.0.0.0 Safari/537.36",WebKit,Chrome,125.0.0.0,Windows,10.0,https://app.prolific.com/,"en-US,en;q=0.9",wrywed,"[""exposure_4s_15.mp3""]",exposure,,exp_noresponse,,,,,,
47,,,audio-keyboard-response,47,723647,0.0-16.0-30.0,11,tonic C5,2024-05-31 14:16:45,69c1fe8e8766760338ed5ecbe911aaa3,82.31.246.252,"Mozilla/5.0 (Windows NT 10.0; Win64; x64) AppleWebKit/537.36 (KHTML, like Gecko) Chrome/125.0.0.0 Safari/537.36",WebKit,Chrome,125.0.0.0,Windows,10.0,https://app.prolific.com/,"en-US,en;q=0.9",wrywed,"[""exposure_4s_33.mp3""]",exposure,,exp_noresponse,,,,,,
48,,,audio-keyboard-response,48,746967,0.0-16.0-31.0,11,tonic C5,2024-05-31 14:16:45,69c1fe8e8766760338ed5ecbe911aaa3,82.31.246.252,"Mozilla/5.0 (Windows NT 10.0; Win64; x64) AppleWebKit/537.36 (KHTML, like Gecko) Chrome/125.0.0.0 Safari/537.36",WebKit,Chrome,125.0.0.0,Windows,10.0,https://app.prolific.com/,"en-US,en;q=0.9",wrywed,"[""exposure_4s_39.mp3""]",exposure,,exp_noresponse,,,,,,
49,,,audio-keyboard-response,49,770315,0.0-16.0-32.0,11,tonic C5,2024-05-31 14:16:45,69c1fe8e8766760338ed5ecbe911aaa3,82.31.246.252,"Mozilla/5.0 (Windows NT 10.0; Win64; x64) AppleWebKit/537.36 (KHTML, like Gecko) Chrome/125.0.0.0 Safari/537.36",WebKit,Chrome,125.0.0.0,Windows,10.0,https://app.prolific.com/,"en-US,en;q=0.9",wrywed,"[""exposure_4s_34.mp3""]",exposure,,exp_noresponse,,,,,,
50,,,audio-keyboard-response,50,793318,0.0-16.0-33.0,11,tonic C5,2024-05-31 14:16:45,69c1fe8e8766760338ed5ecbe911aaa3,82.31.246.252,"Mozilla/5.0 (Windows NT 10.0; Win64; x64) AppleWebKit/537.36 (KHTML, like Gecko) Chrome/125.0.0.0 Safari/537.36",WebKit,Chrome,125.0.0.0,Windows,10.0,https://app.prolific.com/,"en-US,en;q=0.9",wrywed,"[""exposure_4s_44.mp3""]",exposure,,exp_noresponse,,,,,,
51,,,audio-keyboard-response,51,816678,0.0-16.0-34.0,11,tonic C5,2024-05-31 14:16:45,69c1fe8e8766760338ed5ecbe911aaa3,82.31.246.252,"Mozilla/5.0 (Windows NT 10.0; Win64; x64) AppleWebKit/537.36 (KHTML, like Gecko) Chrome/125.0.0.0 Safari/537.36",WebKit,Chrome,125.0.0.0,Windows,10.0,https://app.prolific.com/,"en-US,en;q=0.9",wrywed,"[""exposure_4s_4.mp3""]",exposure,,exp_noresponse,,,,,,
52,,,audio-keyboard-response,52,839974,0.0-16.0-35.0,11,tonic C5,2024-05-31 14:16:45,69c1fe8e8766760338ed5ecbe911aaa3,82.31.246.252,"Mozilla/5.0 (Windows NT 10.0; Win64; x64) AppleWebKit/537.36 (KHTML, like Gecko) Chrome/125.0.0.0 Safari/537.36",WebKit,Chrome,125.0.0.0,Windows,10.0,https://app.prolific.com/,"en-US,en;q=0.9",wrywed,"[""exposure_4s_9.mp3""]",exposure,,exp_noresponse,,,,,,
53,,,audio-keyboard-response,53,862978,0.0-16.0-36.0,11,tonic C5,2024-05-31 14:16:45,69c1fe8e8766760338ed5ecbe911aaa3,82.31.246.252,"Mozilla/5.0 (Windows NT 10.0; Win64; x64) AppleWebKit/537.36 (KHTML, like Gecko) Chrome/125.0.0.0 Safari/537.36",WebKit,Chrome,125.0.0.0,Windows,10.0,https://app.prolific.com/,"en-US,en;q=0.9",wrywed,"[""exposure_4s_12.mp3""]",exposure,,exp_noresponse,,,,,,
54,,,audio-keyboard-response,54,886358,0.0-16.0-37.0,11,tonic C5,2024-05-31 14:16:45,69c1fe8e8766760338ed5ecbe911aaa3,82.31.246.252,"Mozilla/5.0 (Windows NT 10.0; Win64; x64) AppleWebKit/537.36 (KHTML, like Gecko) Chrome/125.0.0.0 Safari/537.36",WebKit,Chrome,125.0.0.0,Windows,10.0,https://app.prolific.com/,"en-US,en;q=0.9",wrywed,"[""exposure_4s_23.mp3""]",exposure,,exp_noresponse,,,,,,
55,8853.0,1,audio-button-response,55,895218,0.0-16.0-38.0,11,tonic C5,2024-05-31 14:16:45,69c1fe8e8766760338ed5ecbe911aaa3,82.31.246.252,"Mozilla/5.0 (Windows NT 10.0; Win64; x64) AppleWebKit/537.36 (KHTML, like Gecko) Chrome/125.0.0.0 Safari/537.36",WebKit,Chrome,125.0.0.0,Windows,10.0,https://app.prolific.com/,"en-US,en;q=0.9",wrywed,attn_length_easy_1.mp3,exposure,True,attncheck,,,,,,
56,,,audio-keyboard-response,56,918221,0.0-16.0-39.0,11,tonic C5,2024-05-31 14:16:45,69c1fe8e8766760338ed5ecbe911aaa3,82.31.246.252,"Mozilla/5.0 (Windows NT 10.0; Win64; x64) AppleWebKit/537.36 (KHTML, like Gecko) Chrome/125.0.0.0 Safari/537.36",WebKit,Chrome,125.0.0.0,Windows,10.0,https://app.prolific.com/,"en-US,en;q=0.9",wrywed,"[""exposure_4s_12.mp3""]",exposure,,exp_noresponse,,,,,,
57,8555.0,5,audio-slider-response,57,926926,0.0-16.0-40.0,11,tonic C5,2024-05-31 14:16:45,69c1fe8e8766760338ed5ecbe911aaa3,82.31.246.252,"Mozilla/5.0 (Windows NT 10.0; Win64; x64) AppleWebKit/537.36 (KHTML, like Gecko) Chrome/125.0.0.0 Safari/537.36",WebKit,Chrome,125.0.0.0,Windows,10.0,https://app.prolific.com/,"en-US,en;q=0.9",wrywed,"[""grammatical_8.mp3""]",exposure,,exp_liking,4.0,,,,,
58,,,audio-keyboard-response,58,949931,0.0-16.0-41.0,11,tonic C5,2024-05-31 14:16:45,69c1fe8e8766760338ed5ecbe911aaa3,82.31.246.252,"Mozilla/5.0 (Windows NT 10.0; Win64; x64) AppleWebKit/537.36 (KHTML, like Gecko) Chrome/125.0.0.0 Safari/537.36",WebKit,Chrome,125.0.0.0,Windows,10.0,https://app.prolific.com/,"en-US,en;q=0.9",wrywed,"[""exposure_4s_35.mp3""]",exposure,,exp_noresponse,,,,,,
59,,,audio-keyboard-response,59,972942,0.0-16.0-42.0,11,tonic C5,2024-05-31 14:16:45,69c1fe8e8766760338ed5ecbe911aaa3,82.31.246.252,"Mozilla/5.0 (Windows NT 10.0; Win64; x64) AppleWebKit/537.36 (KHTML, like Gecko) Chrome/125.0.0.0 Safari/537.36",WebKit,Chrome,125.0.0.0,Windows,10.0,https://app.prolific.com/,"en-US,en;q=0.9",wrywed,"[""exposure_4s_35.mp3""]",exposure,,exp_noresponse,,,,,,
60,,,audio-keyboard-response,60,996292,0.0-16.0-43.0,11,tonic C5,2024-05-31 14:16:45,69c1fe8e8766760338ed5ecbe911aaa3,82.31.246.252,"Mozilla/5.0 (Windows NT 10.0; Win64; x64) AppleWebKit/537.36 (KHTML, like Gecko) Chrome/125.0.0.0 Safari/537.36",WebKit,Chrome,125.0.0.0,Windows,10.0,https://app.prolific.com/,"en-US,en;q=0.9",wrywed,"[""exposure_4s_2.mp3""]",exposure,,exp_noresponse,,,,,,
61,,,audio-keyboard-response,61,1019301,0.0-16.0-44.0,11,tonic C5,2024-05-31 14:16:45,69c1fe8e8766760338ed5ecbe911aaa3,82.31.246.252,"Mozilla/5.0 (Windows NT 10.0; Win64; x64) AppleWebKit/537.36 (KHTML, like Gecko) Chrome/125.0.0.0 Safari/537.36",WebKit,Chrome,125.0.0.0,Windows,10.0,https://app.prolific.com/,"en-US,en;q=0.9",wrywed,"[""exposure_4s_4.mp3""]",exposure,,exp_noresponse,,,,,,
62,,,audio-keyboard-response,62,1042600,0.0-16.0-45.0,11,tonic C5,2024-05-31 14:16:45,69c1fe8e8766760338ed5ecbe911aaa3,82.31.246.252,"Mozilla/5.0 (Windows NT 10.0; Win64; x64) AppleWebKit/537.36 (KHTML, like Gecko) Chrome/125.0.0.0 Safari/537.36",WebKit,Chrome,125.0.0.0,Windows,10.0,https://app.prolific.com/,"en-US,en;q=0.9",wrywed,"[""exposure_4s_13.mp3""]",exposure,,exp_noresponse,,,,,,
63,8235.0,1,audio-button-response,63,1050834,0.0-16.0-46.0,11,tonic C5,2024-05-31 14:16:45,69c1fe8e8766760338ed5ecbe911aaa3,82.31.246.252,"Mozilla/5.0 (Windows NT 10.0; Win64; x64) AppleWebKit/537.36 (KHTML, like Gecko) Chrome/125.0.0.0 Safari/537.36",WebKit,Chrome,125.0.0.0,Windows,10.0,https://app.prolific.com/,"en-US,en;q=0.9",wrywed,attn_length_easy_1.mp3,exposure,True,attncheck,,,,,,
64,,,audio-keyboard-response,64,1074192,0.0-16.0-47.0,11,tonic C5,2024-05-31 14:16:45,69c1fe8e8766760338ed5ecbe911aaa3,82.31.246.252,"Mozilla/5.0 (Windows NT 10.0; Win64; x64) AppleWebKit/537.36 (KHTML, like Gecko) Chrome/125.0.0.0 Safari/537.36",WebKit,Chrome,125.0.0.0,Windows,10.0,https://app.prolific.com/,"en-US,en;q=0.9",wrywed,"[""exposure_4s_37.mp3""]",exposure,,exp_noresponse,,,,,,
65,7328.0,4,audio-slider-response,65,1081672,0.0-16.0-48.0,11,tonic C5,2024-05-31 14:16:45,69c1fe8e8766760338ed5ecbe911aaa3,82.31.246.252,"Mozilla/5.0 (Windows NT 10.0; Win64; x64) AppleWebKit/537.36 (KHTML, like Gecko) Chrome/125.0.0.0 Safari/537.36",WebKit,Chrome,125.0.0.0,Windows,10.0,https://app.prolific.com/,"en-US,en;q=0.9",wrywed,"[""grammatical_7.mp3""]",exposure,,exp_liking,4.0,,,,,
66,,,audio-keyboard-response,66,1104961,0.0-16.0-49.0,11,tonic C5,2024-05-31 14:16:45,69c1fe8e8766760338ed5ecbe911aaa3,82.31.246.252,"Mozilla/5.0 (Windows NT 10.0; Win64; x64) AppleWebKit/537.36 (KHTML, like Gecko) Chrome/125.0.0.0 Safari/537.36",WebKit,Chrome,125.0.0.0,Windows,10.0,https://app.prolific.com/,"en-US,en;q=0.9",wrywed,"[""exposure_4s_28.mp3""]",exposure,,exp_noresponse,,,,,,
67,,,audio-keyboard-response,67,1127973,0.0-16.0-50.0,11,tonic C5,2024-05-31 14:16:45,69c1fe8e8766760338ed5ecbe911aaa3,82.31.246.252,"Mozilla/5.0 (Windows NT 10.0; Win64; x64) AppleWebKit/537.36 (KHTML, like Gecko) Chrome/125.0.0.0 Safari/537.36",WebKit,Chrome,125.0.0.0,Windows,10.0,https://app.prolific.com/,"en-US,en;q=0.9",wrywed,"[""exposure_4s_32.mp3""]",exposure,,exp_noresponse,,,,,,
68,,,audio-keyboard-response,68,1151350,0.0-16.0-51.0,11,tonic C5,2024-05-31 14:16:45,69c1fe8e8766760338ed5ecbe911aaa3,82.31.246.252,"Mozilla/5.0 (Windows NT 10.0; Win64; x64) AppleWebKit/537.36 (KHTML, like Gecko) Chrome/125.0.0.0 Safari/537.36",WebKit,Chrome,125.0.0.0,Windows,10.0,https://app.prolific.com/,"en-US,en;q=0.9",wrywed,"[""exposure_4s_27.mp3""]",exposure,,exp_noresponse,,,,,,
69,,,audio-keyboard-response,69,1174634,0.0-16.0-52.0,11,tonic C5,2024-05-31 14:16:45,69c1fe8e8766760338ed5ecbe911aaa3,82.31.246.252,"Mozilla/5.0 (Windows NT 10.0; Win64; x64) AppleWebKit/537.36 (KHTML, like Gecko) Chrome/125.0.0.0 Safari/537.36",WebKit,Chrome,125.0.0.0,Windows,10.0,https://app.prolific.com/,"en-US,en;q=0.9",wrywed,"[""exposure_4s_41.mp3""]",exposure,,exp_noresponse,,,,,,
70,,,audio-keyboard-response,70,1197637,0.0-16.0-53.0,11,tonic C5,2024-05-31 14:16:45,69c1fe8e8766760338ed5ecbe911aaa3,82.31.246.252,"Mozilla/5.0 (Windows NT 10.0; Win64; x64) AppleWebKit/537.36 (KHTML, like Gecko) Chrome/125.0.0.0 Safari/537.36",WebKit,Chrome,125.0.0.0,Windows,10.0,https://app.prolific.com/,"en-US,en;q=0.9",wrywed,"[""exposure_4s_19.mp3""]",exposure,,exp_noresponse,,,,,,
71,,,audio-keyboard-response,71,1221013,0.0-16.0-54.0,11,tonic C5,2024-05-31 14:16:45,69c1fe8e8766760338ed5ecbe911aaa3,82.31.246.252,"Mozilla/5.0 (Windows NT 10.0; Win64; x64) AppleWebKit/537.36 (KHTML, like Gecko) Chrome/125.0.0.0 Safari/537.36",WebKit,Chrome,125.0.0.0,Windows,10.0,https://app.prolific.com/,"en-US,en;q=0.9",wrywed,"[""exposure_4s_14.mp3""]",exposure,,exp_noresponse,,,,,,
72,,,audio-keyboard-response,72,1244025,0.0-16.0-55.0,11,tonic C5,2024-05-31 14:16:45,69c1fe8e8766760338ed5ecbe911aaa3,82.31.246.252,"Mozilla/5.0 (Windows NT 10.0; Win64; x64) AppleWebKit/537.36 (KHTML, like Gecko) Chrome/125.0.0.0 Safari/537.36",WebKit,Chrome,125.0.0.0,Windows,10.0,https://app.prolific.com/,"en-US,en;q=0.9",wrywed,"[""exposure_4s_14.mp3""]",exposure,,exp_noresponse,,,,,,
73,,,audio-keyboard-response,73,1267035,0.0-16.0-56.0,11,tonic C5,2024-05-31 14:16:45,69c1fe8e8766760338ed5ecbe911aaa3,82.31.246.252,"Mozilla/5.0 (Windows NT 10.0; Win64; x64) AppleWebKit/537.36 (KHTML, like Gecko) Chrome/125.0.0.0 Safari/537.36",WebKit,Chrome,125.0.0.0,Windows,10.0,https://app.prolific.com/,"en-US,en;q=0.9",wrywed,"[""exposure_4s_37.mp3""]",exposure,,exp_noresponse,,,,,,
74,,,audio-keyboard-response,74,1290051,0.0-16.0-57.0,11,tonic C5,2024-05-31 14:16:45,69c1fe8e8766760338ed5ecbe911aaa3,82.31.246.252,"Mozilla/5.0 (Windows NT 10.0; Win64; x64) AppleWebKit/537.36 (KHTML, like Gecko) Chrome/125.0.0.0 Safari/537.36",WebKit,Chrome,125.0.0.0,Windows,10.0,https://app.prolific.com/,"en-US,en;q=0.9",wrywed,"[""exposure_4s_2.mp3""]",exposure,,exp_noresponse,,,,,,
75,,,audio-keyboard-response,75,1313419,0.0-16.0-58.0,11,tonic C5,2024-05-31 14:16:45,69c1fe8e8766760338ed5ecbe911aaa3,82.31.246.252,"Mozilla/5.0 (Windows NT 10.0; Win64; x64) AppleWebKit/537.36 (KHTML, like Gecko) Chrome/125.0.0.0 Safari/537.36",WebKit,Chrome,125.0.0.0,Windows,10.0,https://app.prolific.com/,"en-US,en;q=0.9",wrywed,"[""exposure_4s_36.mp3""]",exposure,,exp_noresponse,,,,,,
76,,,audio-keyboard-response,76,1336435,0.0-16.0-59.0,11,tonic C5,2024-05-31 14:16:45,69c1fe8e8766760338ed5ecbe911aaa3,82.31.246.252,"Mozilla/5.0 (Windows NT 10.0; Win64; x64) AppleWebKit/537.36 (KHTML, like Gecko) Chrome/125.0.0.0 Safari/537.36",WebKit,Chrome,125.0.0.0,Windows,10.0,https://app.prolific.com/,"en-US,en;q=0.9",wrywed,"[""exposure_4s_25.mp3""]",exposure,,exp_noresponse,,,,,,
77,6110.0, ,html-keyboard-response,77,1342549,0.0-17.0,11,tonic C5,2024-05-31 14:16:45,69c1fe8e8766760338ed5ecbe911aaa3,82.31.246.252,"Mozilla/5.0 (Windows NT 10.0; Win64; x64) AppleWebKit/537.36 (KHTML, like Gecko) Chrome/125.0.0.0 Safari/537.36",WebKit,Chrome,125.0.0.0,Windows,10.0,https://app.prolific.com/,"en-US,en;q=0.9",wrywed,"<p>You will now be asked to judge how similar some melodies are to what you have
    just listened to. </p>
    <p><b>Press the space bar to continue.</b></p>",,,,,,,,,
78,3567.0, ,html-keyboard-response,78,1346119,0.0-18.0,11,tonic C5,2024-05-31 14:16:45,69c1fe8e8766760338ed5ecbe911aaa3,82.31.246.252,"Mozilla/5.0 (Windows NT 10.0; Win64; x64) AppleWebKit/537.36 (KHTML, like Gecko) Chrome/125.0.0.0 Safari/537.36",WebKit,Chrome,125.0.0.0,Windows,10.0,https://app.prolific.com/,"en-US,en;q=0.9",wrywed,"<p>The changes in the melodies are subtle. If you are not sure, go with your gut feeling.</p>
    <p><b>Press the space bar to continue.</b></p>",,,,,,,,,
79,16501.0,5,audio-slider-response,79,1362770,0.0-19.0-0.0,11,tonic C5,2024-05-31 14:16:45,69c1fe8e8766760338ed5ecbe911aaa3,82.31.246.252,"Mozilla/5.0 (Windows NT 10.0; Win64; x64) AppleWebKit/537.36 (KHTML, like Gecko) Chrome/125.0.0.0 Safari/537.36",WebKit,Chrome,125.0.0.0,Windows,10.0,https://app.prolific.com/,"en-US,en;q=0.9",wrywed,agrammatical_6.mp3,grammar_learning,,,4.0,,,,,
80,6187.0,5,audio-slider-response,80,1368952,0.0-19.0-0.1,11,tonic C5,2024-05-31 14:16:45,69c1fe8e8766760338ed5ecbe911aaa3,82.31.246.252,"Mozilla/5.0 (Windows NT 10.0; Win64; x64) AppleWebKit/537.36 (KHTML, like Gecko) Chrome/125.0.0.0 Safari/537.36",WebKit,Chrome,125.0.0.0,Windows,10.0,https://app.prolific.com/,"en-US,en;q=0.9",wrywed,grammatical_6.mp3,grammar_learning,,,4.0,,,,,
81,7072.0,5,audio-slider-response,81,1376202,0.0-19.0-0.2,11,tonic C5,2024-05-31 14:16:45,69c1fe8e8766760338ed5ecbe911aaa3,82.31.246.252,"Mozilla/5.0 (Windows NT 10.0; Win64; x64) AppleWebKit/537.36 (KHTML, like Gecko) Chrome/125.0.0.0 Safari/537.36",WebKit,Chrome,125.0.0.0,Windows,10.0,https://app.prolific.com/,"en-US,en;q=0.9",wrywed,agrammatical_7.mp3,grammar_learning,,,4.0,,,,,
82,8053.0,3,audio-slider-response,82,1384407,0.0-19.0-0.3,11,tonic C5,2024-05-31 14:16:45,69c1fe8e8766760338ed5ecbe911aaa3,82.31.246.252,"Mozilla/5.0 (Windows NT 10.0; Win64; x64) AppleWebKit/537.36 (KHTML, like Gecko) Chrome/125.0.0.0 Safari/537.36",WebKit,Chrome,125.0.0.0,Windows,10.0,https://app.prolific.com/,"en-US,en;q=0.9",wrywed,agrammatical_4.mp3,grammar_learning,,,4.0,,,,,
83,6368.0,3,audio-slider-response,83,1390782,0.0-19.0-0.4,11,tonic C5,2024-05-31 14:16:45,69c1fe8e8766760338ed5ecbe911aaa3,82.31.246.252,"Mozilla/5.0 (Windows NT 10.0; Win64; x64) AppleWebKit/537.36 (KHTML, like Gecko) Chrome/125.0.0.0 Safari/537.36",WebKit,Chrome,125.0.0.0,Windows,10.0,https://app.prolific.com/,"en-US,en;q=0.9",wrywed,grammatical_8.mp3,grammar_learning,,,4.0,,,,,
84,5365.0,3,audio-slider-response,84,1396300,0.0-19.0-0.5,11,tonic C5,2024-05-31 14:16:45,69c1fe8e8766760338ed5ecbe911aaa3,82.31.246.252,"Mozilla/5.0 (Windows NT 10.0; Win64; x64) AppleWebKit/537.36 (KHTML, like Gecko) Chrome/125.0.0.0 Safari/537.36",WebKit,Chrome,125.0.0.0,Windows,10.0,https://app.prolific.com/,"en-US,en;q=0.9",wrywed,agrammatical_2.mp3,grammar_learning,,,4.0,,,,,
85,5547.0,3,audio-slider-response,85,1401981,0.0-19.0-0.6,11,tonic C5,2024-05-31 14:16:45,69c1fe8e8766760338ed5ecbe911aaa3,82.31.246.252,"Mozilla/5.0 (Windows NT 10.0; Win64; x64) AppleWebKit/537.36 (KHTML, like Gecko) Chrome/125.0.0.0 Safari/537.36",WebKit,Chrome,125.0.0.0,Windows,10.0,https://app.prolific.com/,"en-US,en;q=0.9",wrywed,grammatical_3.mp3,grammar_learning,,,4.0,,,,,
86,4928.0,3,audio-slider-response,86,1407016,0.0-19.0-0.7,11,tonic C5,2024-05-31 14:16:45,69c1fe8e8766760338ed5ecbe911aaa3,82.31.246.252,"Mozilla/5.0 (Windows NT 10.0; Win64; x64) AppleWebKit/537.36 (KHTML, like Gecko) Chrome/125.0.0.0 Safari/537.36",WebKit,Chrome,125.0.0.0,Windows,10.0,https://app.prolific.com/,"en-US,en;q=0.9",wrywed,agrammatical_3.mp3,grammar_learning,,,4.0,,,,,
87,5355.0,3,audio-slider-response,87,1412378,0.0-19.0-0.8,11,tonic C5,2024-05-31 14:16:45,69c1fe8e8766760338ed5ecbe911aaa3,82.31.246.252,"Mozilla/5.0 (Windows NT 10.0; Win64; x64) AppleWebKit/537.36 (KHTML, like Gecko) Chrome/125.0.0.0 Safari/537.36",WebKit,Chrome,125.0.0.0,Windows,10.0,https://app.prolific.com/,"en-US,en;q=0.9",wrywed,grammatical_7.mp3,grammar_learning,,,4.0,,,,,
88,6091.0,3,audio-slider-response,88,1418612,0.0-19.0-0.9,11,tonic C5,2024-05-31 14:16:45,69c1fe8e8766760338ed5ecbe911aaa3,82.31.246.252,"Mozilla/5.0 (Windows NT 10.0; Win64; x64) AppleWebKit/537.36 (KHTML, like Gecko) Chrome/125.0.0.0 Safari/537.36",WebKit,Chrome,125.0.0.0,Windows,10.0,https://app.prolific.com/,"en-US,en;q=0.9",wrywed,agrammatical_1.mp3,grammar_learning,,,4.0,,,,,
89,4917.0,3,audio-slider-response,89,1423679,0.0-19.0-0.10,11,tonic C5,2024-05-31 14:16:45,69c1fe8e8766760338ed5ecbe911aaa3,82.31.246.252,"Mozilla/5.0 (Windows NT 10.0; Win64; x64) AppleWebKit/537.36 (KHTML, like Gecko) Chrome/125.0.0.0 Safari/537.36",WebKit,Chrome,125.0.0.0,Windows,10.0,https://app.prolific.com/,"en-US,en;q=0.9",wrywed,agrammatical_8.mp3,grammar_learning,,,4.0,,,,,
90,4693.0,3,audio-slider-response,90,1428478,0.0-19.0-0.11,11,tonic C5,2024-05-31 14:16:45,69c1fe8e8766760338ed5ecbe911aaa3,82.31.246.252,"Mozilla/5.0 (Windows NT 10.0; Win64; x64) AppleWebKit/537.36 (KHTML, like Gecko) Chrome/125.0.0.0 Safari/537.36",WebKit,Chrome,125.0.0.0,Windows,10.0,https://app.prolific.com/,"en-US,en;q=0.9",wrywed,grammatical_4.mp3,grammar_learning,,,4.0,,,,,
91,4960.0,3,audio-slider-response,91,1433443,0.0-19.0-0.12,11,tonic C5,2024-05-31 14:16:45,69c1fe8e8766760338ed5ecbe911aaa3,82.31.246.252,"Mozilla/5.0 (Windows NT 10.0; Win64; x64) AppleWebKit/537.36 (KHTML, like Gecko) Chrome/125.0.0.0 Safari/537.36",WebKit,Chrome,125.0.0.0,Windows,10.0,https://app.prolific.com/,"en-US,en;q=0.9",wrywed,grammatical_1.mp3,grammar_learning,,,4.0,,,,,
92,5323.0,3,audio-slider-response,92,1438950,0.0-19.0-0.13,11,tonic C5,2024-05-31 14:16:45,69c1fe8e8766760338ed5ecbe911aaa3,82.31.246.252,"Mozilla/5.0 (Windows NT 10.0; Win64; x64) AppleWebKit/537.36 (KHTML, like Gecko) Chrome/125.0.0.0 Safari/537.36",WebKit,Chrome,125.0.0.0,Windows,10.0,https://app.prolific.com/,"en-US,en;q=0.9",wrywed,grammatical_2.mp3,grammar_learning,,,4.0,,,,,
93,5237.0,3,audio-slider-response,93,1444334,0.0-19.0-0.14,11,tonic C5,2024-05-31 14:16:45,69c1fe8e8766760338ed5ecbe911aaa3,82.31.246.252,"Mozilla/5.0 (Windows NT 10.0; Win64; x64) AppleWebKit/537.36 (KHTML, like Gecko) Chrome/125.0.0.0 Safari/537.36",WebKit,Chrome,125.0.0.0,Windows,10.0,https://app.prolific.com/,"en-US,en;q=0.9",wrywed,agrammatical_5.mp3,grammar_learning,,,4.0,,,,,
94,5237.0,3,audio-slider-response,94,1449681,0.0-19.0-0.15,11,tonic C5,2024-05-31 14:16:45,69c1fe8e8766760338ed5ecbe911aaa3,82.31.246.252,"Mozilla/5.0 (Windows NT 10.0; Win64; x64) AppleWebKit/537.36 (KHTML, like Gecko) Chrome/125.0.0.0 Safari/537.36",WebKit,Chrome,125.0.0.0,Windows,10.0,https://app.prolific.com/,"en-US,en;q=0.9",wrywed,grammatical_5.mp3,grammar_learning,,,4.0,,,,,
95,20926.0,"{""prolific_id"":""Note counting to the best I could.""}",survey-html-form,95,1470613,0.0-20.0,11,tonic C5,2024-05-31 14:16:45,69c1fe8e8766760338ed5ecbe911aaa3,82.31.246.252,"Mozilla/5.0 (Windows NT 10.0; Win64; x64) AppleWebKit/537.36 (KHTML, like Gecko) Chrome/125.0.0.0 Safari/537.36",WebKit,Chrome,125.0.0.0,Windows,10.0,https://app.prolific.com/,"en-US,en;q=0.9",wrywed,,,,,,,,,,
96,3351.0, ,html-keyboard-response,96,1473970,0.0-21.0,11,tonic C5,2024-05-31 14:16:45,69c1fe8e8766760338ed5ecbe911aaa3,82.31.246.252,"Mozilla/5.0 (Windows NT 10.0; Win64; x64) AppleWebKit/537.36 (KHTML, like Gecko) Chrome/125.0.0.0 Safari/537.36",WebKit,Chrome,125.0.0.0,Windows,10.0,https://app.prolific.com/,"en-US,en;q=0.9",wrywed,"<p>In this part of the experiment, you will presented with two melodies in succession. 
    <p><b>Press the space bar to continue.</b></p>",,,,,,,,,
97,2197.0, ,html-keyboard-response,97,1476170,0.0-22.0,11,tonic C5,2024-05-31 14:16:45,69c1fe8e8766760338ed5ecbe911aaa3,82.31.246.252,"Mozilla/5.0 (Windows NT 10.0; Win64; x64) AppleWebKit/537.36 (KHTML, like Gecko) Chrome/125.0.0.0 Safari/537.36",WebKit,Chrome,125.0.0.0,Windows,10.0,https://app.prolific.com/,"en-US,en;q=0.9",wrywed,"<p>The melodies are nearly identical, but have either an added accent or one different note. </p>
    <p><b>Press the space bar to continue.</b></p>",,,,,,,,,
98,2692.0, ,html-keyboard-response,98,1478866,0.0-23.0,11,tonic C5,2024-05-31 14:16:45,69c1fe8e8766760338ed5ecbe911aaa3,82.31.246.252,"Mozilla/5.0 (Windows NT 10.0; Win64; x64) AppleWebKit/537.36 (KHTML, like Gecko) Chrome/125.0.0.0 Safari/537.36",WebKit,Chrome,125.0.0.0,Windows,10.0,https://app.prolific.com/,"en-US,en;q=0.9",wrywed,"<p>    Please choose the melody that <b>sounds better to you.</b></p>
    <p><b>Press the space bar to continue.</b></p>",,,,,,,,,
99,2752.0, ,html-keyboard-response,99,1481621,0.0-24.0,11,tonic C5,2024-05-31 14:16:45,69c1fe8e8766760338ed5ecbe911aaa3,82.31.246.252,"Mozilla/5.0 (Windows NT 10.0; Win64; x64) AppleWebKit/537.36 (KHTML, like Gecko) Chrome/125.0.0.0 Safari/537.36",WebKit,Chrome,125.0.0.0,Windows,10.0,https://app.prolific.com/,"en-US,en;q=0.9",wrywed,There are <b>32 questions</b> in this section.,,,,,,,,,
100,6528.0,j,audio-keyboard-response,100,1488465,0.0-25.0-0.0,11,tonic C5,2024-05-31 14:16:45,69c1fe8e8766760338ed5ecbe911aaa3,82.31.246.252,"Mozilla/5.0 (Windows NT 10.0; Win64; x64) AppleWebKit/537.36 (KHTML, like Gecko) Chrome/125.0.0.0 Safari/537.36",WebKit,Chrome,125.0.0.0,Windows,10.0,https://app.prolific.com/,"en-US,en;q=0.9",wrywed,fc_IC_accent_5_2.mp3,forced_choice,,,,,j,False,True,
101,5408.0,j,audio-keyboard-response,101,1494027,0.0-25.0-0.1,11,tonic C5,2024-05-31 14:16:45,69c1fe8e8766760338ed5ecbe911aaa3,82.31.246.252,"Mozilla/5.0 (Windows NT 10.0; Win64; x64) AppleWebKit/537.36 (KHTML, like Gecko) Chrome/125.0.0.0 Safari/537.36",WebKit,Chrome,125.0.0.0,Windows,10.0,https://app.prolific.com/,"en-US,en;q=0.9",wrywed,fc_IC_default_3_3.mp3,forced_choice,,,,,f,False,False,
102,6432.0,j,audio-keyboard-response,102,1500786,0.0-25.0-0.2,11,tonic C5,2024-05-31 14:16:45,69c1fe8e8766760338ed5ecbe911aaa3,82.31.246.252,"Mozilla/5.0 (Windows NT 10.0; Win64; x64) AppleWebKit/537.36 (KHTML, like Gecko) Chrome/125.0.0.0 Safari/537.36",WebKit,Chrome,125.0.0.0,Windows,10.0,https://app.prolific.com/,"en-US,en;q=0.9",wrywed,fc_accents_32_4.mp3,forced_choice,,,,j,,True,False,
103,5408.0,j,audio-keyboard-response,103,1506347,0.0-25.0-0.3,11,tonic C5,2024-05-31 14:16:45,69c1fe8e8766760338ed5ecbe911aaa3,82.31.246.252,"Mozilla/5.0 (Windows NT 10.0; Win64; x64) AppleWebKit/537.36 (KHTML, like Gecko) Chrome/125.0.0.0 Safari/537.36",WebKit,Chrome,125.0.0.0,Windows,10.0,https://app.prolific.com/,"en-US,en;q=0.9",wrywed,fc_accents_54_1.mp3,forced_choice,,,,j,,True,False,
104,6624.0,f,audio-keyboard-response,104,1513117,0.0-25.0-0.4,11,tonic C5,2024-05-31 14:16:45,69c1fe8e8766760338ed5ecbe911aaa3,82.31.246.252,"Mozilla/5.0 (Windows NT 10.0; Win64; x64) AppleWebKit/537.36 (KHTML, like Gecko) Chrome/125.0.0.0 Safari/537.36",WebKit,Chrome,125.0.0.0,Windows,10.0,https://app.prolific.com/,"en-US,en;q=0.9",wrywed,fc_IC_default_5_2.mp3,forced_choice,,,,,j,False,False,
105,5504.0,j,audio-keyboard-response,105,1518744,0.0-25.0-0.5,11,tonic C5,2024-05-31 14:16:45,69c1fe8e8766760338ed5ecbe911aaa3,82.31.246.252,"Mozilla/5.0 (Windows NT 10.0; Win64; x64) AppleWebKit/537.36 (KHTML, like Gecko) Chrome/125.0.0.0 Safari/537.36",WebKit,Chrome,125.0.0.0,Windows,10.0,https://app.prolific.com/,"en-US,en;q=0.9",wrywed,fc_accents_34_1.mp3,forced_choice,,,,j,,True,False,
106,5653.0,j,audio-keyboard-response,106,1524549,0.0-25.0-0.6,11,tonic C5,2024-05-31 14:16:45,69c1fe8e8766760338ed5ecbe911aaa3,82.31.246.252,"Mozilla/5.0 (Windows NT 10.0; Win64; x64) AppleWebKit/537.36 (KHTML, like Gecko) Chrome/125.0.0.0 Safari/537.36",WebKit,Chrome,125.0.0.0,Windows,10.0,https://app.prolific.com/,"en-US,en;q=0.9",wrywed,fc_IC_accent_5_4.mp3,forced_choice,,,,,j,False,True,
107,6261.0,j,audio-keyboard-response,107,1530940,0.0-25.0-0.7,11,tonic C5,2024-05-31 14:16:45,69c1fe8e8766760338ed5ecbe911aaa3,82.31.246.252,"Mozilla/5.0 (Windows NT 10.0; Win64; x64) AppleWebKit/537.36 (KHTML, like Gecko) Chrome/125.0.0.0 Safari/537.36",WebKit,Chrome,125.0.0.0,Windows,10.0,https://app.prolific.com/,"en-US,en;q=0.9",wrywed,fc_accents_34_2.mp3,forced_choice,,,,j,,True,False,
108,5835.0,f,audio-keyboard-response,108,1536884,0.0-25.0-0.8,11,tonic C5,2024-05-31 14:16:45,69c1fe8e8766760338ed5ecbe911aaa3,82.31.246.252,"Mozilla/5.0 (Windows NT 10.0; Win64; x64) AppleWebKit/537.36 (KHTML, like Gecko) Chrome/125.0.0.0 Safari/537.36",WebKit,Chrome,125.0.0.0,Windows,10.0,https://app.prolific.com/,"en-US,en;q=0.9",wrywed,fc_IC_default_5_4.mp3,forced_choice,,,,,j,False,False,
109,6112.0,j,audio-keyboard-response,109,1543154,0.0-25.0-0.9,11,tonic C5,2024-05-31 14:16:45,69c1fe8e8766760338ed5ecbe911aaa3,82.31.246.252,"Mozilla/5.0 (Windows NT 10.0; Win64; x64) AppleWebKit/537.36 (KHTML, like Gecko) Chrome/125.0.0.0 Safari/537.36",WebKit,Chrome,125.0.0.0,Windows,10.0,https://app.prolific.com/,"en-US,en;q=0.9",wrywed,fc_accents_54_2.mp3,forced_choice,,,,j,,True,False,
110,5792.0,j,audio-keyboard-response,110,1549244,0.0-25.0-0.10,11,tonic C5,2024-05-31 14:16:45,69c1fe8e8766760338ed5ecbe911aaa3,82.31.246.252,"Mozilla/5.0 (Windows NT 10.0; Win64; x64) AppleWebKit/537.36 (KHTML, like Gecko) Chrome/125.0.0.0 Safari/537.36",WebKit,Chrome,125.0.0.0,Windows,10.0,https://app.prolific.com/,"en-US,en;q=0.9",wrywed,fc_accents_56_2.mp3,forced_choice,,,,j,,True,False,
111,5067.0,j,audio-keyboard-response,111,1554464,0.0-25.0-0.11,11,tonic C5,2024-05-31 14:16:45,69c1fe8e8766760338ed5ecbe911aaa3,82.31.246.252,"Mozilla/5.0 (Windows NT 10.0; Win64; x64) AppleWebKit/537.36 (KHTML, like Gecko) Chrome/125.0.0.0 Safari/537.36",WebKit,Chrome,125.0.0.0,Windows,10.0,https://app.prolific.com/,"en-US,en;q=0.9",wrywed,fc_accents_34_4.mp3,forced_choice,,,,j,,True,False,
112,6037.0,f,audio-keyboard-response,112,1560608,0.0-25.0-0.12,11,tonic C5,2024-05-31 14:16:45,69c1fe8e8766760338ed5ecbe911aaa3,82.31.246.252,"Mozilla/5.0 (Windows NT 10.0; Win64; x64) AppleWebKit/537.36 (KHTML, like Gecko) Chrome/125.0.0.0 Safari/537.36",WebKit,Chrome,125.0.0.0,Windows,10.0,https://app.prolific.com/,"en-US,en;q=0.9",wrywed,fc_accents_32_2.mp3,forced_choice,,,,j,,False,False,
113,5536.0,j,audio-keyboard-response,113,1566295,0.0-25.0-0.13,11,tonic C5,2024-05-31 14:16:45,69c1fe8e8766760338ed5ecbe911aaa3,82.31.246.252,"Mozilla/5.0 (Windows NT 10.0; Win64; x64) AppleWebKit/537.36 (KHTML, like Gecko) Chrome/125.0.0.0 Safari/537.36",WebKit,Chrome,125.0.0.0,Windows,10.0,https://app.prolific.com/,"en-US,en;q=0.9",wrywed,fc_accents_32_3.mp3,forced_choice,,,,j,,True,False,
114,6613.0,j,audio-keyboard-response,114,1573067,0.0-25.0-0.14,11,tonic C5,2024-05-31 14:16:45,69c1fe8e8766760338ed5ecbe911aaa3,82.31.246.252,"Mozilla/5.0 (Windows NT 10.0; Win64; x64) AppleWebKit/537.36 (KHTML, like Gecko) Chrome/125.0.0.0 Safari/537.36",WebKit,Chrome,125.0.0.0,Windows,10.0,https://app.prolific.com/,"en-US,en;q=0.9",wrywed,fc_accents_54_3.mp3,forced_choice,,,,j,,True,False,
115,5867.0,j,audio-keyboard-response,115,1579039,0.0-25.0-0.15,11,tonic C5,2024-05-31 14:16:45,69c1fe8e8766760338ed5ecbe911aaa3,82.31.246.252,"Mozilla/5.0 (Windows NT 10.0; Win64; x64) AppleWebKit/537.36 (KHTML, like Gecko) Chrome/125.0.0.0 Safari/537.36",WebKit,Chrome,125.0.0.0,Windows,10.0,https://app.prolific.com/,"en-US,en;q=0.9",wrywed,fc_accents_34_3.mp3,forced_choice,,,,j,,True,False,
116,6091.0,f,audio-keyboard-response,116,1585296,0.0-25.0-0.16,11,tonic C5,2024-05-31 14:16:45,69c1fe8e8766760338ed5ecbe911aaa3,82.31.246.252,"Mozilla/5.0 (Windows NT 10.0; Win64; x64) AppleWebKit/537.36 (KHTML, like Gecko) Chrome/125.0.0.0 Safari/537.36",WebKit,Chrome,125.0.0.0,Windows,10.0,https://app.prolific.com/,"en-US,en;q=0.9",wrywed,fc_IC_default_3_1.mp3,forced_choice,,,,,f,False,True,
117,5792.0,j,audio-keyboard-response,117,1591240,0.0-25.0-0.17,11,tonic C5,2024-05-31 14:16:45,69c1fe8e8766760338ed5ecbe911aaa3,82.31.246.252,"Mozilla/5.0 (Windows NT 10.0; Win64; x64) AppleWebKit/537.36 (KHTML, like Gecko) Chrome/125.0.0.0 Safari/537.36",WebKit,Chrome,125.0.0.0,Windows,10.0,https://app.prolific.com/,"en-US,en;q=0.9",wrywed,fc_IC_accent_3_3.mp3,forced_choice,,,,,f,False,False,
118,5675.0,j,audio-keyboard-response,118,1597044,0.0-25.0-0.18,11,tonic C5,2024-05-31 14:16:45,69c1fe8e8766760338ed5ecbe911aaa3,82.31.246.252,"Mozilla/5.0 (Windows NT 10.0; Win64; x64) AppleWebKit/537.36 (KHTML, like Gecko) Chrome/125.0.0.0 Safari/537.36",WebKit,Chrome,125.0.0.0,Windows,10.0,https://app.prolific.com/,"en-US,en;q=0.9",wrywed,fc_IC_accent_3_1.mp3,forced_choice,,,,,f,False,False,
119,6069.0,j,audio-keyboard-response,119,1603116,0.0-25.0-0.19,11,tonic C5,2024-05-31 14:16:45,69c1fe8e8766760338ed5ecbe911aaa3,82.31.246.252,"Mozilla/5.0 (Windows NT 10.0; Win64; x64) AppleWebKit/537.36 (KHTML, like Gecko) Chrome/125.0.0.0 Safari/537.36",WebKit,Chrome,125.0.0.0,Windows,10.0,https://app.prolific.com/,"en-US,en;q=0.9",wrywed,fc_accents_56_4.mp3,forced_choice,,,,j,,True,False,
120,5952.0,j,audio-keyboard-response,120,1609211,0.0-25.0-0.20,11,tonic C5,2024-05-31 14:16:45,69c1fe8e8766760338ed5ecbe911aaa3,82.31.246.252,"Mozilla/5.0 (Windows NT 10.0; Win64; x64) AppleWebKit/537.36 (KHTML, like Gecko) Chrome/125.0.0.0 Safari/537.36",WebKit,Chrome,125.0.0.0,Windows,10.0,https://app.prolific.com/,"en-US,en;q=0.9",wrywed,fc_accents_56_1.mp3,forced_choice,,,,j,,True,False,
121,5824.0,f,audio-keyboard-response,121,1615189,0.0-25.0-0.21,11,tonic C5,2024-05-31 14:16:45,69c1fe8e8766760338ed5ecbe911aaa3,82.31.246.252,"Mozilla/5.0 (Windows NT 10.0; Win64; x64) AppleWebKit/537.36 (KHTML, like Gecko) Chrome/125.0.0.0 Safari/537.36",WebKit,Chrome,125.0.0.0,Windows,10.0,https://app.prolific.com/,"en-US,en;q=0.9",wrywed,fc_IC_accent_5_3.mp3,forced_choice,,,,,j,False,False,
122,6677.0,j,audio-keyboard-response,122,1622089,0.0-25.0-0.22,11,tonic C5,2024-05-31 14:16:45,69c1fe8e8766760338ed5ecbe911aaa3,82.31.246.252,"Mozilla/5.0 (Windows NT 10.0; Win64; x64) AppleWebKit/537.36 (KHTML, like Gecko) Chrome/125.0.0.0 Safari/537.36",WebKit,Chrome,125.0.0.0,Windows,10.0,https://app.prolific.com/,"en-US,en;q=0.9",wrywed,fc_IC_accent_5_1.mp3,forced_choice,,,,,j,False,True,
123,6197.0,j,audio-keyboard-response,123,1628289,0.0-25.0-0.23,11,tonic C5,2024-05-31 14:16:45,69c1fe8e8766760338ed5ecbe911aaa3,82.31.246.252,"Mozilla/5.0 (Windows NT 10.0; Win64; x64) AppleWebKit/537.36 (KHTML, like Gecko) Chrome/125.0.0.0 Safari/537.36",WebKit,Chrome,125.0.0.0,Windows,10.0,https://app.prolific.com/,"en-US,en;q=0.9",wrywed,fc_accents_54_4.mp3,forced_choice,,,,j,,True,False,
124,5653.0,f,audio-keyboard-response,124,1634098,0.0-25.0-0.24,11,tonic C5,2024-05-31 14:16:45,69c1fe8e8766760338ed5ecbe911aaa3,82.31.246.252,"Mozilla/5.0 (Windows NT 10.0; Win64; x64) AppleWebKit/537.36 (KHTML, like Gecko) Chrome/125.0.0.0 Safari/537.36",WebKit,Chrome,125.0.0.0,Windows,10.0,https://app.prolific.com/,"en-US,en;q=0.9",wrywed,fc_IC_default_3_2.mp3,forced_choice,,,,,f,False,True,
125,6357.0,j,audio-keyboard-response,125,1640578,0.0-25.0-0.25,11,tonic C5,2024-05-31 14:16:45,69c1fe8e8766760338ed5ecbe911aaa3,82.31.246.252,"Mozilla/5.0 (Windows NT 10.0; Win64; x64) AppleWebKit/537.36 (KHTML, like Gecko) Chrome/125.0.0.0 Safari/537.36",WebKit,Chrome,125.0.0.0,Windows,10.0,https://app.prolific.com/,"en-US,en;q=0.9",wrywed,fc_IC_accent_3_2.mp3,forced_choice,,,,,f,False,False,
126,5824.0,f,audio-keyboard-response,126,1646551,0.0-25.0-0.26,11,tonic C5,2024-05-31 14:16:45,69c1fe8e8766760338ed5ecbe911aaa3,82.31.246.252,"Mozilla/5.0 (Windows NT 10.0; Win64; x64) AppleWebKit/537.36 (KHTML, like Gecko) Chrome/125.0.0.0 Safari/537.36",WebKit,Chrome,125.0.0.0,Windows,10.0,https://app.prolific.com/,"en-US,en;q=0.9",wrywed,fc_IC_default_5_3.mp3,forced_choice,,,,,j,False,False,
127,6485.0,j,audio-keyboard-response,127,1653204,0.0-25.0-0.27,11,tonic C5,2024-05-31 14:16:45,69c1fe8e8766760338ed5ecbe911aaa3,82.31.246.252,"Mozilla/5.0 (Windows NT 10.0; Win64; x64) AppleWebKit/537.36 (KHTML, like Gecko) Chrome/125.0.0.0 Safari/537.36",WebKit,Chrome,125.0.0.0,Windows,10.0,https://app.prolific.com/,"en-US,en;q=0.9",wrywed,fc_IC_accent_3_4.mp3,forced_choice,,,,,f,False,False,
128,5483.0,f,audio-keyboard-response,128,1658803,0.0-25.0-0.28,11,tonic C5,2024-05-31 14:16:45,69c1fe8e8766760338ed5ecbe911aaa3,82.31.246.252,"Mozilla/5.0 (Windows NT 10.0; Win64; x64) AppleWebKit/537.36 (KHTML, like Gecko) Chrome/125.0.0.0 Safari/537.36",WebKit,Chrome,125.0.0.0,Windows,10.0,https://app.prolific.com/,"en-US,en;q=0.9",wrywed,fc_IC_default_3_4.mp3,forced_choice,,,,,f,False,True,
129,5749.0,f,audio-keyboard-response,129,1664708,0.0-25.0-0.29,11,tonic C5,2024-05-31 14:16:45,69c1fe8e8766760338ed5ecbe911aaa3,82.31.246.252,"Mozilla/5.0 (Windows NT 10.0; Win64; x64) AppleWebKit/537.36 (KHTML, like Gecko) Chrome/125.0.0.0 Safari/537.36",WebKit,Chrome,125.0.0.0,Windows,10.0,https://app.prolific.com/,"en-US,en;q=0.9",wrywed,fc_IC_default_5_1.mp3,forced_choice,,,,,j,False,False,
130,6091.0,j,audio-keyboard-response,130,1670913,0.0-25.0-0.30,11,tonic C5,2024-05-31 14:16:45,69c1fe8e8766760338ed5ecbe911aaa3,82.31.246.252,"Mozilla/5.0 (Windows NT 10.0; Win64; x64) AppleWebKit/537.36 (KHTML, like Gecko) Chrome/125.0.0.0 Safari/537.36",WebKit,Chrome,125.0.0.0,Windows,10.0,https://app.prolific.com/,"en-US,en;q=0.9",wrywed,fc_accents_56_3.mp3,forced_choice,,,,j,,True,False,
131,5749.0,j,audio-keyboard-response,131,1676661,0.0-25.0-0.31,11,tonic C5,2024-05-31 14:16:45,69c1fe8e8766760338ed5ecbe911aaa3,82.31.246.252,"Mozilla/5.0 (Windows NT 10.0; Win64; x64) AppleWebKit/537.36 (KHTML, like Gecko) Chrome/125.0.0.0 Safari/537.36",WebKit,Chrome,125.0.0.0,Windows,10.0,https://app.prolific.com/,"en-US,en;q=0.9",wrywed,fc_accents_32_1.mp3,forced_choice,,,,j,,True,False,
132,5319.0, ,html-keyboard-response,132,1681984,0.0-26.0,11,tonic C5,2024-05-31 14:16:45,69c1fe8e8766760338ed5ecbe911aaa3,82.31.246.252,"Mozilla/5.0 (Windows NT 10.0; Win64; x64) AppleWebKit/537.36 (KHTML, like Gecko) Chrome/125.0.0.0 Safari/537.36",WebKit,Chrome,125.0.0.0,Windows,10.0,https://app.prolific.com/,"en-US,en;q=0.9",wrywed,"<p>You have completed all the listening in this experiment. The remaining questions about your background
          will help us better understand your responses. You can skip any question that you do not wish to answer. </p>
          <p> <b> Press the space bar to continue. </b></p>",,,,,,,,,
133,5378.0,"{""HeadphoneUse"":""Yes, I used earbuds""}",survey-multi-choice,133,1687372,0.0-27.0,11,tonic C5,2024-05-31 14:16:45,69c1fe8e8766760338ed5ecbe911aaa3,82.31.246.252,"Mozilla/5.0 (Windows NT 10.0; Win64; x64) AppleWebKit/537.36 (KHTML, like Gecko) Chrome/125.0.0.0 Safari/537.36",WebKit,Chrome,125.0.0.0,Windows,10.0,https://app.prolific.com/,"en-US,en;q=0.9",wrywed,,survey,,,,,,,,[0]
134,16855.0,"{""age"":""1979"",""country"":""England"",""language"":""English""}",survey-html-form,134,1704235,0.0-28.0,11,tonic C5,2024-05-31 14:16:45,69c1fe8e8766760338ed5ecbe911aaa3,82.31.246.252,"Mozilla/5.0 (Windows NT 10.0; Win64; x64) AppleWebKit/537.36 (KHTML, like Gecko) Chrome/125.0.0.0 Safari/537.36",WebKit,Chrome,125.0.0.0,Windows,10.0,https://app.prolific.com/,"en-US,en;q=0.9",wrywed,,survey,,,,,,,,
135,3890.0,"{""Gender"":""Female""}",survey-multi-choice,135,1708132,0.0-29.0,11,tonic C5,2024-05-31 14:16:45,69c1fe8e8766760338ed5ecbe911aaa3,82.31.246.252,"Mozilla/5.0 (Windows NT 10.0; Win64; x64) AppleWebKit/537.36 (KHTML, like Gecko) Chrome/125.0.0.0 Safari/537.36",WebKit,Chrome,125.0.0.0,Windows,10.0,https://app.prolific.com/,"en-US,en;q=0.9",wrywed,,survey,,,,,,,,[0]
136,15634.0,"{""Colors"":[""Pop"",""Country"",""Reggae""]}",survey-multi-select,136,1723783,0.0-30.0,11,tonic C5,2024-05-31 14:16:45,69c1fe8e8766760338ed5ecbe911aaa3,82.31.246.252,"Mozilla/5.0 (Windows NT 10.0; Win64; x64) AppleWebKit/537.36 (KHTML, like Gecko) Chrome/125.0.0.0 Safari/537.36",WebKit,Chrome,125.0.0.0,Windows,10.0,https://app.prolific.com/,"en-US,en;q=0.9",wrywed,,,,,,,,,,[0]
137,12160.0,"{""HearingImpairment"":""No"",""PerfectPitch"":""I'm not sure"",""Singing"":""Yes""}",survey-multi-choice,137,1735954,0.0-31.0,11,tonic C5,2024-05-31 14:16:45,69c1fe8e8766760338ed5ecbe911aaa3,82.31.246.252,"Mozilla/5.0 (Windows NT 10.0; Win64; x64) AppleWebKit/537.36 (KHTML, like Gecko) Chrome/125.0.0.0 Safari/537.36",WebKit,Chrome,125.0.0.0,Windows,10.0,https://app.prolific.com/,"en-US,en;q=0.9",wrywed,,survey,,,,,,,,"[0,1,2]"
138,37297.0,"{""PracticeHours"":""Under 30 minutes"",""TrainingYears"":""None at all"",""TrainingType"":""I taught myself"",""Expertise"":""Beginner"",""NonWesternTraining"":""No""}",survey-multi-choice,138,1773264,0.0-32.0,11,tonic C5,2024-05-31 14:16:45,69c1fe8e8766760338ed5ecbe911aaa3,82.31.246.252,"Mozilla/5.0 (Windows NT 10.0; Win64; x64) AppleWebKit/537.36 (KHTML, like Gecko) Chrome/125.0.0.0 Safari/537.36",WebKit,Chrome,125.0.0.0,Windows,10.0,https://app.prolific.com/,"en-US,en;q=0.9",wrywed,,survey,,,,,,,,"[0,1,2,3,4]"
139,5670.0,"{""TrainingStart"":""I did not have any formal training""}",survey-multi-choice,139,1778941,0.0-33.0,11,tonic C5,2024-05-31 14:16:45,69c1fe8e8766760338ed5ecbe911aaa3,82.31.246.252,"Mozilla/5.0 (Windows NT 10.0; Win64; x64) AppleWebKit/537.36 (KHTML, like Gecko) Chrome/125.0.0.0 Safari/537.36",WebKit,Chrome,125.0.0.0,Windows,10.0,https://app.prolific.com/,"en-US,en;q=0.9",wrywed,,survey,,,,,,,,[0]
140,8613.0,0,html-button-response,140,1787563,0.0-34.0,11,tonic C5,2024-05-31 14:16:45,69c1fe8e8766760338ed5ecbe911aaa3,82.31.246.252,"Mozilla/5.0 (Windows NT 10.0; Win64; x64) AppleWebKit/537.36 (KHTML, like Gecko) Chrome/125.0.0.0 Safari/537.36",WebKit,Chrome,125.0.0.0,Windows,10.0,https://app.prolific.com/,"en-US,en;q=0.9",wrywed,"You have reached the end of the experiment. Your completion code is <b>C1AWH3EX</b>.
    <p>For questions or concerns, please write to <b>haiqin.zhang@ens.psl.eu.</b></p>
    Thank you for your participation!
  ",,,,,,,,,
141,6106.0,"{""prolific_id"":""63d9631e251c2e59497256b8""}",survey-html-form,0,6109,0.0-0.0,23,tonic C5,2024-05-31 14:25:40,69c1fe8e8766760338ed5ecbe911aaa3,92.26.12.147,"Mozilla/5.0 (Windows NT 10.0; Win64; x64) AppleWebKit/537.36 (KHTML, like Gecko) Chrome/125.0.0.0 Safari/537.36 Edg/125.0.0.0",WebKit,Edge,125.0.0.0,Windows,10.0,https://app.prolific.com/,"en-GB,en;q=0.9,en-US;q=0.8",x8c67z,,,,,,,,,,
142,1060.0, ,html-keyboard-response,1,7172,0.0-1.0,23,tonic C5,2024-05-31 14:25:40,69c1fe8e8766760338ed5ecbe911aaa3,92.26.12.147,"Mozilla/5.0 (Windows NT 10.0; Win64; x64) AppleWebKit/537.36 (KHTML, like Gecko) Chrome/125.0.0.0 Safari/537.36 Edg/125.0.0.0",WebKit,Edge,125.0.0.0,Windows,10.0,https://app.prolific.com/,"en-GB,en;q=0.9,en-US;q=0.8",x8c67z,"
    <p>Please complete the experiment in a quiet place.
      We highly recommend using headphones.</p>

    </p align = 'justify'> <b>Press the space bar to proceed.</b> </p>",,,,,,,,,
143,31815.0, ,html-keyboard-response,2,38988,0.0-2.0,23,tonic C5,2024-05-31 14:25:40,69c1fe8e8766760338ed5ecbe911aaa3,92.26.12.147,"Mozilla/5.0 (Windows NT 10.0; Win64; x64) AppleWebKit/537.36 (KHTML, like Gecko) Chrome/125.0.0.0 Safari/537.36 Edg/125.0.0.0",WebKit,Edge,125.0.0.0,Windows,10.0,https://app.prolific.com/,"en-GB,en;q=0.9,en-US;q=0.8",x8c67z,"
    <p>A series of soundchecks will now be played to help you adjust the volume
      to a comfortable level. </p>

    </p align = 'justify'> <b>Press the space bar to proceed.</b> </p>",,,,,,,,,
144,2272.0,0,audio-button-response,3,41446,0.0-3.0-0.0,23,tonic C5,2024-05-31 14:25:40,69c1fe8e8766760338ed5ecbe911aaa3,92.26.12.147,"Mozilla/5.0 (Windows NT 10.0; Win64; x64) AppleWebKit/537.36 (KHTML, like Gecko) Chrome/125.0.0.0 Safari/537.36 Edg/125.0.0.0",WebKit,Edge,125.0.0.0,Windows,10.0,https://app.prolific.com/,"en-GB,en;q=0.9,en-US;q=0.8",x8c67z,grammatical_1.mp3,,,,,,,,,
145,7848.0,1,audio-button-response,4,49298,0.0-3.1-0.1,23,tonic C5,2024-05-31 14:25:40,69c1fe8e8766760338ed5ecbe911aaa3,92.26.12.147,"Mozilla/5.0 (Windows NT 10.0; Win64; x64) AppleWebKit/537.36 (KHTML, like Gecko) Chrome/125.0.0.0 Safari/537.36 Edg/125.0.0.0",WebKit,Edge,125.0.0.0,Windows,10.0,https://app.prolific.com/,"en-GB,en;q=0.9,en-US;q=0.8",x8c67z,grammatical_1.mp3,,,,,,,,,
146,6919.0, ,html-keyboard-response,5,56218,0.0-4.0,23,tonic C5,2024-05-31 14:25:40,69c1fe8e8766760338ed5ecbe911aaa3,92.26.12.147,"Mozilla/5.0 (Windows NT 10.0; Win64; x64) AppleWebKit/537.36 (KHTML, like Gecko) Chrome/125.0.0.0 Safari/537.36 Edg/125.0.0.0",WebKit,Edge,125.0.0.0,Windows,10.0,https://app.prolific.com/,"en-GB,en;q=0.9,en-US;q=0.8",x8c67z,"<p width = 300 px>
    You will now hear two melodies in succession. 
    The notes in each melody are the same, but there is an accent on one note for one of the melodies. 
    <b>Listen for which melody has the accent.</b>
    </p>
    
    Press the space bar to continue.",,,,,,,,,
147,2241.0, ,html-keyboard-response,6,58460,0.0-5.0,23,tonic C5,2024-05-31 14:25:40,69c1fe8e8766760338ed5ecbe911aaa3,92.26.12.147,"Mozilla/5.0 (Windows NT 10.0; Win64; x64) AppleWebKit/537.36 (KHTML, like Gecko) Chrome/125.0.0.0 Safari/537.36 Edg/125.0.0.0",WebKit,Edge,125.0.0.0,Windows,10.0,https://app.prolific.com/,"en-GB,en;q=0.9,en-US;q=0.8",x8c67z,"<p width = 300 px>
    <b>You must score at least 2/3 to proceed with the experiment.</b>
    </p>
    
    Press the space bar to continue.",,,,,,,,,
148,3360.0,1,audio-button-response,7,62216,0.0-6.0,23,tonic C5,2024-05-31 14:25:40,69c1fe8e8766760338ed5ecbe911aaa3,92.26.12.147,"Mozilla/5.0 (Windows NT 10.0; Win64; x64) AppleWebKit/537.36 (KHTML, like Gecko) Chrome/125.0.0.0 Safari/537.36 Edg/125.0.0.0",WebKit,Edge,125.0.0.0,Windows,10.0,https://app.prolific.com/,"en-GB,en;q=0.9,en-US;q=0.8",x8c67z,fc_accents_32_1.mp3,soundcheck,True,,,,,,,
149,1003.0, ,html-keyboard-response,8,63221,0.0-7.0,23,tonic C5,2024-05-31 14:25:40,69c1fe8e8766760338ed5ecbe911aaa3,92.26.12.147,"Mozilla/5.0 (Windows NT 10.0; Win64; x64) AppleWebKit/537.36 (KHTML, like Gecko) Chrome/125.0.0.0 Safari/537.36 Edg/125.0.0.0",WebKit,Edge,125.0.0.0,Windows,10.0,https://app.prolific.com/,"en-GB,en;q=0.9,en-US;q=0.8",x8c67z,<p>Correct!</p> Press the space bar to continue.,,,,,,,,,
150,4960.0,1,audio-button-response,9,68295,0.0-8.0,23,tonic C5,2024-05-31 14:25:40,69c1fe8e8766760338ed5ecbe911aaa3,92.26.12.147,"Mozilla/5.0 (Windows NT 10.0; Win64; x64) AppleWebKit/537.36 (KHTML, like Gecko) Chrome/125.0.0.0 Safari/537.36 Edg/125.0.0.0",WebKit,Edge,125.0.0.0,Windows,10.0,https://app.prolific.com/,"en-GB,en;q=0.9,en-US;q=0.8",x8c67z,fc_accents_56_4.mp3,soundcheck,True,,,,,,,
151,1351.0, ,html-keyboard-response,10,69646,0.0-9.0,23,tonic C5,2024-05-31 14:25:40,69c1fe8e8766760338ed5ecbe911aaa3,92.26.12.147,"Mozilla/5.0 (Windows NT 10.0; Win64; x64) AppleWebKit/537.36 (KHTML, like Gecko) Chrome/125.0.0.0 Safari/537.36 Edg/125.0.0.0",WebKit,Edge,125.0.0.0,Windows,10.0,https://app.prolific.com/,"en-GB,en;q=0.9,en-US;q=0.8",x8c67z,<p>Correct!</p> Press the space bar to continue.,,,,,,,,,
152,1251.0,1,audio-button-response,11,70982,0.0-10.0,23,tonic C5,2024-05-31 14:25:40,69c1fe8e8766760338ed5ecbe911aaa3,92.26.12.147,"Mozilla/5.0 (Windows NT 10.0; Win64; x64) AppleWebKit/537.36 (KHTML, like Gecko) Chrome/125.0.0.0 Safari/537.36 Edg/125.0.0.0",WebKit,Edge,125.0.0.0,Windows,10.0,https://app.prolific.com/,"en-GB,en;q=0.9,en-US;q=0.8",x8c67z,fc_accents_54_4.mp3,soundcheck,True,,,,,,,
153,878.0, ,html-keyboard-response,12,71861,0.0-11.0,23,tonic C5,2024-05-31 14:25:40,69c1fe8e8766760338ed5ecbe911aaa3,92.26.12.147,"Mozilla/5.0 (Windows NT 10.0; Win64; x64) AppleWebKit/537.36 (KHTML, like Gecko) Chrome/125.0.0.0 Safari/537.36 Edg/125.0.0.0",WebKit,Edge,125.0.0.0,Windows,10.0,https://app.prolific.com/,"en-GB,en;q=0.9,en-US;q=0.8",x8c67z,<p>Correct!</p> Press the space bar to continue.,,,,,,,,,
154,15860.0, ,html-keyboard-response,13,87723,0.0-12.0,23,tonic C5,2024-05-31 14:25:40,69c1fe8e8766760338ed5ecbe911aaa3,92.26.12.147,"Mozilla/5.0 (Windows NT 10.0; Win64; x64) AppleWebKit/537.36 (KHTML, like Gecko) Chrome/125.0.0.0 Safari/537.36 Edg/125.0.0.0",WebKit,Edge,125.0.0.0,Windows,10.0,https://app.prolific.com/,"en-GB,en;q=0.9,en-US;q=0.8",x8c67z,"If you got <b>less than 2/3</b> of the previous soundcheck questions correct, <b>we unfortunately cannot use your data or pay you</b>. Please exit the experiment now.
    
    <p>If you got <b>more than 2/3</b> correct, press the space bar to continue</p>.",,,,,,,,,
155,5453.0, ,html-keyboard-response,14,93177,0.0-13.0,23,tonic C5,2024-05-31 14:25:40,69c1fe8e8766760338ed5ecbe911aaa3,92.26.12.147,"Mozilla/5.0 (Windows NT 10.0; Win64; x64) AppleWebKit/537.36 (KHTML, like Gecko) Chrome/125.0.0.0 Safari/537.36 Edg/125.0.0.0",WebKit,Edge,125.0.0.0,Windows,10.0,https://app.prolific.com/,"en-GB,en;q=0.9,en-US;q=0.8",x8c67z,"<p>Please listen carefully to the following set of melodies. 
      You will occassionally be asked some basic questions about some of the melodies to check your attention level. </p>
    <p><b>Press the space bar to continue.</b></p>",,,,,,,,,
156,3858.0, ,html-keyboard-response,15,97037,0.0-14.0,23,tonic C5,2024-05-31 14:25:40,69c1fe8e8766760338ed5ecbe911aaa3,92.26.12.147,"Mozilla/5.0 (Windows NT 10.0; Win64; x64) AppleWebKit/537.36 (KHTML, like Gecko) Chrome/125.0.0.0 Safari/537.36 Edg/125.0.0.0",WebKit,Edge,125.0.0.0,Windows,10.0,https://app.prolific.com/,"en-GB,en;q=0.9,en-US;q=0.8",x8c67z,"<p>The attention questions vary in difficulty, but you must get at least some questions correct for us to pay you.</p>
    <p><b>Press the space bar to continue.</b></p>",,,,,,,,,
157,1523.0, ,html-keyboard-response,16,98562,0.0-15.0,23,tonic C5,2024-05-31 14:25:40,69c1fe8e8766760338ed5ecbe911aaa3,92.26.12.147,"Mozilla/5.0 (Windows NT 10.0; Win64; x64) AppleWebKit/537.36 (KHTML, like Gecko) Chrome/125.0.0.0 Safari/537.36 Edg/125.0.0.0",WebKit,Edge,125.0.0.0,Windows,10.0,https://app.prolific.com/,"en-GB,en;q=0.9,en-US;q=0.8",x8c67z,"
    This part of the experiment should take <b>15-20 minutes</b>. 
    <p><b>Press the space bar to begin.</b></p>",,,,,,,,,
158,,,audio-keyboard-response,17,122012,0.0-16.0-0.0,23,tonic C5,2024-05-31 14:25:40,69c1fe8e8766760338ed5ecbe911aaa3,92.26.12.147,"Mozilla/5.0 (Windows NT 10.0; Win64; x64) AppleWebKit/537.36 (KHTML, like Gecko) Chrome/125.0.0.0 Safari/537.36 Edg/125.0.0.0",WebKit,Edge,125.0.0.0,Windows,10.0,https://app.prolific.com/,"en-GB,en;q=0.9,en-US;q=0.8",x8c67z,"[""exposure_4s_1.mp3""]",exposure,,exp_noresponse,,,,,,
159,,,audio-keyboard-response,18,145249,0.0-16.0-1.0,23,tonic C5,2024-05-31 14:25:40,69c1fe8e8766760338ed5ecbe911aaa3,92.26.12.147,"Mozilla/5.0 (Windows NT 10.0; Win64; x64) AppleWebKit/537.36 (KHTML, like Gecko) Chrome/125.0.0.0 Safari/537.36 Edg/125.0.0.0",WebKit,Edge,125.0.0.0,Windows,10.0,https://app.prolific.com/,"en-GB,en;q=0.9,en-US;q=0.8",x8c67z,"[""exposure_4s_30.mp3""]",exposure,,exp_noresponse,,,,,,
160,7400.0,5,audio-slider-response,19,152758,0.0-16.0-2.0,23,tonic C5,2024-05-31 14:25:40,69c1fe8e8766760338ed5ecbe911aaa3,92.26.12.147,"Mozilla/5.0 (Windows NT 10.0; Win64; x64) AppleWebKit/537.36 (KHTML, like Gecko) Chrome/125.0.0.0 Safari/537.36 Edg/125.0.0.0",WebKit,Edge,125.0.0.0,Windows,10.0,https://app.prolific.com/,"en-GB,en;q=0.9,en-US;q=0.8",x8c67z,"[""grammatical_6.mp3""]",exposure,,exp_liking,4.0,,,,,
161,,,audio-keyboard-response,20,176002,0.0-16.0-3.0,23,tonic C5,2024-05-31 14:25:40,69c1fe8e8766760338ed5ecbe911aaa3,92.26.12.147,"Mozilla/5.0 (Windows NT 10.0; Win64; x64) AppleWebKit/537.36 (KHTML, like Gecko) Chrome/125.0.0.0 Safari/537.36 Edg/125.0.0.0",WebKit,Edge,125.0.0.0,Windows,10.0,https://app.prolific.com/,"en-GB,en;q=0.9,en-US;q=0.8",x8c67z,"[""exposure_4s_19.mp3""]",exposure,,exp_noresponse,,,,,,
162,,,audio-keyboard-response,21,199254,0.0-16.0-4.0,23,tonic C5,2024-05-31 14:25:40,69c1fe8e8766760338ed5ecbe911aaa3,92.26.12.147,"Mozilla/5.0 (Windows NT 10.0; Win64; x64) AppleWebKit/537.36 (KHTML, like Gecko) Chrome/125.0.0.0 Safari/537.36 Edg/125.0.0.0",WebKit,Edge,125.0.0.0,Windows,10.0,https://app.prolific.com/,"en-GB,en;q=0.9,en-US;q=0.8",x8c67z,"[""exposure_4s_43.mp3""]",exposure,,exp_noresponse,,,,,,
163,,,audio-keyboard-response,22,222648,0.0-16.0-5.0,23,tonic C5,2024-05-31 14:25:40,69c1fe8e8766760338ed5ecbe911aaa3,92.26.12.147,"Mozilla/5.0 (Windows NT 10.0; Win64; x64) AppleWebKit/537.36 (KHTML, like Gecko) Chrome/125.0.0.0 Safari/537.36 Edg/125.0.0.0",WebKit,Edge,125.0.0.0,Windows,10.0,https://app.prolific.com/,"en-GB,en;q=0.9,en-US;q=0.8",x8c67z,"[""exposure_4s_2.mp3""]",exposure,,exp_noresponse,,,,,,
164,,,audio-keyboard-response,23,246090,0.0-16.0-6.0,23,tonic C5,2024-05-31 14:25:40,69c1fe8e8766760338ed5ecbe911aaa3,92.26.12.147,"Mozilla/5.0 (Windows NT 10.0; Win64; x64) AppleWebKit/537.36 (KHTML, like Gecko) Chrome/125.0.0.0 Safari/537.36 Edg/125.0.0.0",WebKit,Edge,125.0.0.0,Windows,10.0,https://app.prolific.com/,"en-GB,en;q=0.9,en-US;q=0.8",x8c67z,"[""exposure_4s_10.mp3""]",exposure,,exp_noresponse,,,,,,
165,,,audio-keyboard-response,24,269311,0.0-16.0-7.0,23,tonic C5,2024-05-31 14:25:40,69c1fe8e8766760338ed5ecbe911aaa3,92.26.12.147,"Mozilla/5.0 (Windows NT 10.0; Win64; x64) AppleWebKit/537.36 (KHTML, like Gecko) Chrome/125.0.0.0 Safari/537.36 Edg/125.0.0.0",WebKit,Edge,125.0.0.0,Windows,10.0,https://app.prolific.com/,"en-GB,en;q=0.9,en-US;q=0.8",x8c67z,"[""exposure_4s_18.mp3""]",exposure,,exp_noresponse,,,,,,
166,,,audio-keyboard-response,25,292578,0.0-16.0-8.0,23,tonic C5,2024-05-31 14:25:40,69c1fe8e8766760338ed5ecbe911aaa3,92.26.12.147,"Mozilla/5.0 (Windows NT 10.0; Win64; x64) AppleWebKit/537.36 (KHTML, like Gecko) Chrome/125.0.0.0 Safari/537.36 Edg/125.0.0.0",WebKit,Edge,125.0.0.0,Windows,10.0,https://app.prolific.com/,"en-GB,en;q=0.9,en-US;q=0.8",x8c67z,"[""exposure_4s_22.mp3""]",exposure,,exp_noresponse,,,,,,
167,,,audio-keyboard-response,26,315780,0.0-16.0-9.0,23,tonic C5,2024-05-31 14:25:40,69c1fe8e8766760338ed5ecbe911aaa3,92.26.12.147,"Mozilla/5.0 (Windows NT 10.0; Win64; x64) AppleWebKit/537.36 (KHTML, like Gecko) Chrome/125.0.0.0 Safari/537.36 Edg/125.0.0.0",WebKit,Edge,125.0.0.0,Windows,10.0,https://app.prolific.com/,"en-GB,en;q=0.9,en-US;q=0.8",x8c67z,"[""exposure_4s_8.mp3""]",exposure,,exp_noresponse,,,,,,
168,7811.0,1,audio-button-response,27,323679,0.0-16.0-10.0,23,tonic C5,2024-05-31 14:25:40,69c1fe8e8766760338ed5ecbe911aaa3,92.26.12.147,"Mozilla/5.0 (Windows NT 10.0; Win64; x64) AppleWebKit/537.36 (KHTML, like Gecko) Chrome/125.0.0.0 Safari/537.36 Edg/125.0.0.0",WebKit,Edge,125.0.0.0,Windows,10.0,https://app.prolific.com/,"en-GB,en;q=0.9,en-US;q=0.8",x8c67z,attn_length_int_1.mp3,exposure,True,attncheck,,,,,,
169,7992.0,1,audio-button-response,28,331762,0.0-16.0-11.0,23,tonic C5,2024-05-31 14:25:40,69c1fe8e8766760338ed5ecbe911aaa3,92.26.12.147,"Mozilla/5.0 (Windows NT 10.0; Win64; x64) AppleWebKit/537.36 (KHTML, like Gecko) Chrome/125.0.0.0 Safari/537.36 Edg/125.0.0.0",WebKit,Edge,125.0.0.0,Windows,10.0,https://app.prolific.com/,"en-GB,en;q=0.9,en-US;q=0.8",x8c67z,attn_length_easy_1.mp3,exposure,True,attncheck,,,,,,
170,,,audio-keyboard-response,29,354981,0.0-16.0-12.0,23,tonic C5,2024-05-31 14:25:40,69c1fe8e8766760338ed5ecbe911aaa3,92.26.12.147,"Mozilla/5.0 (Windows NT 10.0; Win64; x64) AppleWebKit/537.36 (KHTML, like Gecko) Chrome/125.0.0.0 Safari/537.36 Edg/125.0.0.0",WebKit,Edge,125.0.0.0,Windows,10.0,https://app.prolific.com/,"en-GB,en;q=0.9,en-US;q=0.8",x8c67z,"[""exposure_4s_17.mp3""]",exposure,,exp_noresponse,,,,,,
171,,,audio-keyboard-response,30,378346,0.0-16.0-13.0,23,tonic C5,2024-05-31 14:25:40,69c1fe8e8766760338ed5ecbe911aaa3,92.26.12.147,"Mozilla/5.0 (Windows NT 10.0; Win64; x64) AppleWebKit/537.36 (KHTML, like Gecko) Chrome/125.0.0.0 Safari/537.36 Edg/125.0.0.0",WebKit,Edge,125.0.0.0,Windows,10.0,https://app.prolific.com/,"en-GB,en;q=0.9,en-US;q=0.8",x8c67z,"[""exposure_4s_21.mp3""]",exposure,,exp_noresponse,,,,,,
172,,,audio-keyboard-response,31,401358,0.0-16.0-14.0,23,tonic C5,2024-05-31 14:25:40,69c1fe8e8766760338ed5ecbe911aaa3,92.26.12.147,"Mozilla/5.0 (Windows NT 10.0; Win64; x64) AppleWebKit/537.36 (KHTML, like Gecko) Chrome/125.0.0.0 Safari/537.36 Edg/125.0.0.0",WebKit,Edge,125.0.0.0,Windows,10.0,https://app.prolific.com/,"en-GB,en;q=0.9,en-US;q=0.8",x8c67z,"[""exposure_4s_18.mp3""]",exposure,,exp_noresponse,,,,,,
173,,,audio-keyboard-response,32,424565,0.0-16.0-15.0,23,tonic C5,2024-05-31 14:25:40,69c1fe8e8766760338ed5ecbe911aaa3,92.26.12.147,"Mozilla/5.0 (Windows NT 10.0; Win64; x64) AppleWebKit/537.36 (KHTML, like Gecko) Chrome/125.0.0.0 Safari/537.36 Edg/125.0.0.0",WebKit,Edge,125.0.0.0,Windows,10.0,https://app.prolific.com/,"en-GB,en;q=0.9,en-US;q=0.8",x8c67z,"[""exposure_4s_27.mp3""]",exposure,,exp_noresponse,,,,,,
174,,,audio-keyboard-response,33,447575,0.0-16.0-16.0,23,tonic C5,2024-05-31 14:25:40,69c1fe8e8766760338ed5ecbe911aaa3,92.26.12.147,"Mozilla/5.0 (Windows NT 10.0; Win64; x64) AppleWebKit/537.36 (KHTML, like Gecko) Chrome/125.0.0.0 Safari/537.36 Edg/125.0.0.0",WebKit,Edge,125.0.0.0,Windows,10.0,https://app.prolific.com/,"en-GB,en;q=0.9,en-US;q=0.8",x8c67z,"[""exposure_4s_27.mp3""]",exposure,,exp_noresponse,,,,,,
175,,,audio-keyboard-response,34,470823,0.0-16.0-17.0,23,tonic C5,2024-05-31 14:25:40,69c1fe8e8766760338ed5ecbe911aaa3,92.26.12.147,"Mozilla/5.0 (Windows NT 10.0; Win64; x64) AppleWebKit/537.36 (KHTML, like Gecko) Chrome/125.0.0.0 Safari/537.36 Edg/125.0.0.0",WebKit,Edge,125.0.0.0,Windows,10.0,https://app.prolific.com/,"en-GB,en;q=0.9,en-US;q=0.8",x8c67z,"[""exposure_4s_23.mp3""]",exposure,,exp_noresponse,,,,,,
176,5608.0,3,audio-slider-response,35,476887,0.0-16.0-18.0,23,tonic C5,2024-05-31 14:25:40,69c1fe8e8766760338ed5ecbe911aaa3,92.26.12.147,"Mozilla/5.0 (Windows NT 10.0; Win64; x64) AppleWebKit/537.36 (KHTML, like Gecko) Chrome/125.0.0.0 Safari/537.36 Edg/125.0.0.0",WebKit,Edge,125.0.0.0,Windows,10.0,https://app.prolific.com/,"en-GB,en;q=0.9,en-US;q=0.8",x8c67z,"[""grammatical_2.mp3""]",exposure,,exp_liking,4.0,,,,,
177,,,audio-keyboard-response,36,499900,0.0-16.0-19.0,23,tonic C5,2024-05-31 14:25:40,69c1fe8e8766760338ed5ecbe911aaa3,92.26.12.147,"Mozilla/5.0 (Windows NT 10.0; Win64; x64) AppleWebKit/537.36 (KHTML, like Gecko) Chrome/125.0.0.0 Safari/537.36 Edg/125.0.0.0",WebKit,Edge,125.0.0.0,Windows,10.0,https://app.prolific.com/,"en-GB,en;q=0.9,en-US;q=0.8",x8c67z,"[""exposure_4s_23.mp3""]",exposure,,exp_noresponse,,,,,,
178,,,audio-keyboard-response,37,523238,0.0-16.0-20.0,23,tonic C5,2024-05-31 14:25:40,69c1fe8e8766760338ed5ecbe911aaa3,92.26.12.147,"Mozilla/5.0 (Windows NT 10.0; Win64; x64) AppleWebKit/537.36 (KHTML, like Gecko) Chrome/125.0.0.0 Safari/537.36 Edg/125.0.0.0",WebKit,Edge,125.0.0.0,Windows,10.0,https://app.prolific.com/,"en-GB,en;q=0.9,en-US;q=0.8",x8c67z,"[""exposure_4s_15.mp3""]",exposure,,exp_noresponse,,,,,,
179,8520.0,1,audio-button-response,38,531759,0.0-16.0-21.0,23,tonic C5,2024-05-31 14:25:40,69c1fe8e8766760338ed5ecbe911aaa3,92.26.12.147,"Mozilla/5.0 (Windows NT 10.0; Win64; x64) AppleWebKit/537.36 (KHTML, like Gecko) Chrome/125.0.0.0 Safari/537.36 Edg/125.0.0.0",WebKit,Edge,125.0.0.0,Windows,10.0,https://app.prolific.com/,"en-GB,en;q=0.9,en-US;q=0.8",x8c67z,attn_length_easy_1.mp3,exposure,True,attncheck,,,,,,
180,3861.0,3,audio-slider-response,39,535870,0.0-16.0-22.0,23,tonic C5,2024-05-31 14:25:40,69c1fe8e8766760338ed5ecbe911aaa3,92.26.12.147,"Mozilla/5.0 (Windows NT 10.0; Win64; x64) AppleWebKit/537.36 (KHTML, like Gecko) Chrome/125.0.0.0 Safari/537.36 Edg/125.0.0.0",WebKit,Edge,125.0.0.0,Windows,10.0,https://app.prolific.com/,"en-GB,en;q=0.9,en-US;q=0.8",x8c67z,"[""grammatical_3.mp3""]",exposure,,exp_liking,4.0,,,,,
181,,,audio-keyboard-response,40,559065,0.0-16.0-23.0,23,tonic C5,2024-05-31 14:25:40,69c1fe8e8766760338ed5ecbe911aaa3,92.26.12.147,"Mozilla/5.0 (Windows NT 10.0; Win64; x64) AppleWebKit/537.36 (KHTML, like Gecko) Chrome/125.0.0.0 Safari/537.36 Edg/125.0.0.0",WebKit,Edge,125.0.0.0,Windows,10.0,https://app.prolific.com/,"en-GB,en;q=0.9,en-US;q=0.8",x8c67z,"[""exposure_4s_33.mp3""]",exposure,,exp_noresponse,,,,,,
182,,,audio-keyboard-response,41,582272,0.0-16.0-24.0,23,tonic C5,2024-05-31 14:25:40,69c1fe8e8766760338ed5ecbe911aaa3,92.26.12.147,"Mozilla/5.0 (Windows NT 10.0; Win64; x64) AppleWebKit/537.36 (KHTML, like Gecko) Chrome/125.0.0.0 Safari/537.36 Edg/125.0.0.0",WebKit,Edge,125.0.0.0,Windows,10.0,https://app.prolific.com/,"en-GB,en;q=0.9,en-US;q=0.8",x8c67z,"[""exposure_4s_6.mp3""]",exposure,,exp_noresponse,,,,,,
183,,,audio-keyboard-response,42,605287,0.0-16.0-25.0,23,tonic C5,2024-05-31 14:25:40,69c1fe8e8766760338ed5ecbe911aaa3,92.26.12.147,"Mozilla/5.0 (Windows NT 10.0; Win64; x64) AppleWebKit/537.36 (KHTML, like Gecko) Chrome/125.0.0.0 Safari/537.36 Edg/125.0.0.0",WebKit,Edge,125.0.0.0,Windows,10.0,https://app.prolific.com/,"en-GB,en;q=0.9,en-US;q=0.8",x8c67z,"[""exposure_4s_8.mp3""]",exposure,,exp_noresponse,,,,,,
184,,,audio-keyboard-response,43,628296,0.0-16.0-26.0,23,tonic C5,2024-05-31 14:25:40,69c1fe8e8766760338ed5ecbe911aaa3,92.26.12.147,"Mozilla/5.0 (Windows NT 10.0; Win64; x64) AppleWebKit/537.36 (KHTML, like Gecko) Chrome/125.0.0.0 Safari/537.36 Edg/125.0.0.0",WebKit,Edge,125.0.0.0,Windows,10.0,https://app.prolific.com/,"en-GB,en;q=0.9,en-US;q=0.8",x8c67z,"[""exposure_4s_6.mp3""]",exposure,,exp_noresponse,,,,,,
185,,,audio-keyboard-response,44,651566,0.0-16.0-27.0,23,tonic C5,2024-05-31 14:25:40,69c1fe8e8766760338ed5ecbe911aaa3,92.26.12.147,"Mozilla/5.0 (Windows NT 10.0; Win64; x64) AppleWebKit/537.36 (KHTML, like Gecko) Chrome/125.0.0.0 Safari/537.36 Edg/125.0.0.0",WebKit,Edge,125.0.0.0,Windows,10.0,https://app.prolific.com/,"en-GB,en;q=0.9,en-US;q=0.8",x8c67z,"[""exposure_4s_5.mp3""]",exposure,,exp_noresponse,,,,,,
186,10152.0,1,audio-button-response,45,661720,0.0-16.0-28.0,23,tonic C5,2024-05-31 14:25:40,69c1fe8e8766760338ed5ecbe911aaa3,92.26.12.147,"Mozilla/5.0 (Windows NT 10.0; Win64; x64) AppleWebKit/537.36 (KHTML, like Gecko) Chrome/125.0.0.0 Safari/537.36 Edg/125.0.0.0",WebKit,Edge,125.0.0.0,Windows,10.0,https://app.prolific.com/,"en-GB,en;q=0.9,en-US;q=0.8",x8c67z,attn_length_easy_1.mp3,exposure,True,attncheck,,,,,,
187,,,audio-keyboard-response,46,685032,0.0-16.0-29.0,23,tonic C5,2024-05-31 14:25:40,69c1fe8e8766760338ed5ecbe911aaa3,92.26.12.147,"Mozilla/5.0 (Windows NT 10.0; Win64; x64) AppleWebKit/537.36 (KHTML, like Gecko) Chrome/125.0.0.0 Safari/537.36 Edg/125.0.0.0",WebKit,Edge,125.0.0.0,Windows,10.0,https://app.prolific.com/,"en-GB,en;q=0.9,en-US;q=0.8",x8c67z,"[""exposure_4s_16.mp3""]",exposure,,exp_noresponse,,,,,,
188,4368.0,5,audio-slider-response,47,689489,0.0-16.0-30.0,23,tonic C5,2024-05-31 14:25:40,69c1fe8e8766760338ed5ecbe911aaa3,92.26.12.147,"Mozilla/5.0 (Windows NT 10.0; Win64; x64) AppleWebKit/537.36 (KHTML, like Gecko) Chrome/125.0.0.0 Safari/537.36 Edg/125.0.0.0",WebKit,Edge,125.0.0.0,Windows,10.0,https://app.prolific.com/,"en-GB,en;q=0.9,en-US;q=0.8",x8c67z,"[""grammatical_4.mp3""]",exposure,,exp_liking,4.0,,,,,
189,,,audio-keyboard-response,48,712722,0.0-16.0-31.0,23,tonic C5,2024-05-31 14:25:40,69c1fe8e8766760338ed5ecbe911aaa3,92.26.12.147,"Mozilla/5.0 (Windows NT 10.0; Win64; x64) AppleWebKit/537.36 (KHTML, like Gecko) Chrome/125.0.0.0 Safari/537.36 Edg/125.0.0.0",WebKit,Edge,125.0.0.0,Windows,10.0,https://app.prolific.com/,"en-GB,en;q=0.9,en-US;q=0.8",x8c67z,"[""exposure_4s_28.mp3""]",exposure,,exp_noresponse,,,,,,
190,6989.0,1,audio-button-response,49,719714,0.0-16.0-32.0,23,tonic C5,2024-05-31 14:25:40,69c1fe8e8766760338ed5ecbe911aaa3,92.26.12.147,"Mozilla/5.0 (Windows NT 10.0; Win64; x64) AppleWebKit/537.36 (KHTML, like Gecko) Chrome/125.0.0.0 Safari/537.36 Edg/125.0.0.0",WebKit,Edge,125.0.0.0,Windows,10.0,https://app.prolific.com/,"en-GB,en;q=0.9,en-US;q=0.8",x8c67z,attn_length_easy_1.mp3,exposure,True,attncheck,,,,,,
191,,,audio-keyboard-response,50,742904,0.0-16.0-33.0,23,tonic C5,2024-05-31 14:25:40,69c1fe8e8766760338ed5ecbe911aaa3,92.26.12.147,"Mozilla/5.0 (Windows NT 10.0; Win64; x64) AppleWebKit/537.36 (KHTML, like Gecko) Chrome/125.0.0.0 Safari/537.36 Edg/125.0.0.0",WebKit,Edge,125.0.0.0,Windows,10.0,https://app.prolific.com/,"en-GB,en;q=0.9,en-US;q=0.8",x8c67z,"[""exposure_4s_4.mp3""]",exposure,,exp_noresponse,,,,,,
192,,,audio-keyboard-response,51,766127,0.0-16.0-34.0,23,tonic C5,2024-05-31 14:25:40,69c1fe8e8766760338ed5ecbe911aaa3,92.26.12.147,"Mozilla/5.0 (Windows NT 10.0; Win64; x64) AppleWebKit/537.36 (KHTML, like Gecko) Chrome/125.0.0.0 Safari/537.36 Edg/125.0.0.0",WebKit,Edge,125.0.0.0,Windows,10.0,https://app.prolific.com/,"en-GB,en;q=0.9,en-US;q=0.8",x8c67z,"[""exposure_4s_41.mp3""]",exposure,,exp_noresponse,,,,,,
193,,,audio-keyboard-response,52,789141,0.0-16.0-35.0,23,tonic C5,2024-05-31 14:25:40,69c1fe8e8766760338ed5ecbe911aaa3,92.26.12.147,"Mozilla/5.0 (Windows NT 10.0; Win64; x64) AppleWebKit/537.36 (KHTML, like Gecko) Chrome/125.0.0.0 Safari/537.36 Edg/125.0.0.0",WebKit,Edge,125.0.0.0,Windows,10.0,https://app.prolific.com/,"en-GB,en;q=0.9,en-US;q=0.8",x8c67z,"[""exposure_4s_41.mp3""]",exposure,,exp_noresponse,,,,,,
194,,,audio-keyboard-response,53,812378,0.0-16.0-36.0,23,tonic C5,2024-05-31 14:25:40,69c1fe8e8766760338ed5ecbe911aaa3,92.26.12.147,"Mozilla/5.0 (Windows NT 10.0; Win64; x64) AppleWebKit/537.36 (KHTML, like Gecko) Chrome/125.0.0.0 Safari/537.36 Edg/125.0.0.0",WebKit,Edge,125.0.0.0,Windows,10.0,https://app.prolific.com/,"en-GB,en;q=0.9,en-US;q=0.8",x8c67z,"[""exposure_4s_44.mp3""]",exposure,,exp_noresponse,,,,,,
195,,,audio-keyboard-response,54,835385,0.0-16.0-37.0,23,tonic C5,2024-05-31 14:25:40,69c1fe8e8766760338ed5ecbe911aaa3,92.26.12.147,"Mozilla/5.0 (Windows NT 10.0; Win64; x64) AppleWebKit/537.36 (KHTML, like Gecko) Chrome/125.0.0.0 Safari/537.36 Edg/125.0.0.0",WebKit,Edge,125.0.0.0,Windows,10.0,https://app.prolific.com/,"en-GB,en;q=0.9,en-US;q=0.8",x8c67z,"[""exposure_4s_21.mp3""]",exposure,,exp_noresponse,,,,,,
196,,,audio-keyboard-response,55,858390,0.0-16.0-38.0,23,tonic C5,2024-05-31 14:25:40,69c1fe8e8766760338ed5ecbe911aaa3,92.26.12.147,"Mozilla/5.0 (Windows NT 10.0; Win64; x64) AppleWebKit/537.36 (KHTML, like Gecko) Chrome/125.0.0.0 Safari/537.36 Edg/125.0.0.0",WebKit,Edge,125.0.0.0,Windows,10.0,https://app.prolific.com/,"en-GB,en;q=0.9,en-US;q=0.8",x8c67z,"[""exposure_4s_16.mp3""]",exposure,,exp_noresponse,,,,,,
197,,,audio-keyboard-response,56,881398,0.0-16.0-39.0,23,tonic C5,2024-05-31 14:25:40,69c1fe8e8766760338ed5ecbe911aaa3,92.26.12.147,"Mozilla/5.0 (Windows NT 10.0; Win64; x64) AppleWebKit/537.36 (KHTML, like Gecko) Chrome/125.0.0.0 Safari/537.36 Edg/125.0.0.0",WebKit,Edge,125.0.0.0,Windows,10.0,https://app.prolific.com/,"en-GB,en;q=0.9,en-US;q=0.8",x8c67z,"[""exposure_4s_41.mp3""]",exposure,,exp_noresponse,,,,,,
198,8299.0,1,audio-button-response,57,889703,0.0-16.0-40.0,23,tonic C5,2024-05-31 14:25:40,69c1fe8e8766760338ed5ecbe911aaa3,92.26.12.147,"Mozilla/5.0 (Windows NT 10.0; Win64; x64) AppleWebKit/537.36 (KHTML, like Gecko) Chrome/125.0.0.0 Safari/537.36 Edg/125.0.0.0",WebKit,Edge,125.0.0.0,Windows,10.0,https://app.prolific.com/,"en-GB,en;q=0.9,en-US;q=0.8",x8c67z,attn_length_easy_1.mp3,exposure,True,attncheck,,,,,,
199,,,audio-keyboard-response,58,912714,0.0-16.0-41.0,23,tonic C5,2024-05-31 14:25:40,69c1fe8e8766760338ed5ecbe911aaa3,92.26.12.147,"Mozilla/5.0 (Windows NT 10.0; Win64; x64) AppleWebKit/537.36 (KHTML, like Gecko) Chrome/125.0.0.0 Safari/537.36 Edg/125.0.0.0",WebKit,Edge,125.0.0.0,Windows,10.0,https://app.prolific.com/,"en-GB,en;q=0.9,en-US;q=0.8",x8c67z,"[""exposure_4s_18.mp3""]",exposure,,exp_noresponse,,,,,,
200,7720.0,1,audio-button-response,59,920435,0.0-16.0-42.0,23,tonic C5,2024-05-31 14:25:40,69c1fe8e8766760338ed5ecbe911aaa3,92.26.12.147,"Mozilla/5.0 (Windows NT 10.0; Win64; x64) AppleWebKit/537.36 (KHTML, like Gecko) Chrome/125.0.0.0 Safari/537.36 Edg/125.0.0.0",WebKit,Edge,125.0.0.0,Windows,10.0,https://app.prolific.com/,"en-GB,en;q=0.9,en-US;q=0.8",x8c67z,attn_length_int_1.mp3,exposure,True,attncheck,,,,,,
201,11259.0,1,audio-button-response,60,931814,0.0-16.0-43.0,23,tonic C5,2024-05-31 14:25:40,69c1fe8e8766760338ed5ecbe911aaa3,92.26.12.147,"Mozilla/5.0 (Windows NT 10.0; Win64; x64) AppleWebKit/537.36 (KHTML, like Gecko) Chrome/125.0.0.0 Safari/537.36 Edg/125.0.0.0",WebKit,Edge,125.0.0.0,Windows,10.0,https://app.prolific.com/,"en-GB,en;q=0.9,en-US;q=0.8",x8c67z,attn_length_hard_1.mp3,exposure,True,attncheck,,,,,,
202,,,audio-keyboard-response,61,954997,0.0-16.0-44.0,23,tonic C5,2024-05-31 14:25:40,69c1fe8e8766760338ed5ecbe911aaa3,92.26.12.147,"Mozilla/5.0 (Windows NT 10.0; Win64; x64) AppleWebKit/537.36 (KHTML, like Gecko) Chrome/125.0.0.0 Safari/537.36 Edg/125.0.0.0",WebKit,Edge,125.0.0.0,Windows,10.0,https://app.prolific.com/,"en-GB,en;q=0.9,en-US;q=0.8",x8c67z,"[""exposure_4s_3.mp3""]",exposure,,exp_noresponse,,,,,,
203,9248.0,1,audio-button-response,62,964245,0.0-16.0-45.0,23,tonic C5,2024-05-31 14:25:40,69c1fe8e8766760338ed5ecbe911aaa3,92.26.12.147,"Mozilla/5.0 (Windows NT 10.0; Win64; x64) AppleWebKit/537.36 (KHTML, like Gecko) Chrome/125.0.0.0 Safari/537.36 Edg/125.0.0.0",WebKit,Edge,125.0.0.0,Windows,10.0,https://app.prolific.com/,"en-GB,en;q=0.9,en-US;q=0.8",x8c67z,attn_length_easy_1.mp3,exposure,True,attncheck,,,,,,
204,,,audio-keyboard-response,63,987250,0.0-16.0-46.0,23,tonic C5,2024-05-31 14:25:40,69c1fe8e8766760338ed5ecbe911aaa3,92.26.12.147,"Mozilla/5.0 (Windows NT 10.0; Win64; x64) AppleWebKit/537.36 (KHTML, like Gecko) Chrome/125.0.0.0 Safari/537.36 Edg/125.0.0.0",WebKit,Edge,125.0.0.0,Windows,10.0,https://app.prolific.com/,"en-GB,en;q=0.9,en-US;q=0.8",x8c67z,"[""exposure_4s_33.mp3""]",exposure,,exp_noresponse,,,,,,
205,,,audio-keyboard-response,64,1010439,0.0-16.0-47.0,23,tonic C5,2024-05-31 14:25:40,69c1fe8e8766760338ed5ecbe911aaa3,92.26.12.147,"Mozilla/5.0 (Windows NT 10.0; Win64; x64) AppleWebKit/537.36 (KHTML, like Gecko) Chrome/125.0.0.0 Safari/537.36 Edg/125.0.0.0",WebKit,Edge,125.0.0.0,Windows,10.0,https://app.prolific.com/,"en-GB,en;q=0.9,en-US;q=0.8",x8c67z,"[""exposure_4s_20.mp3""]",exposure,,exp_noresponse,,,,,,
206,8589.0,1,audio-button-response,65,1019033,0.0-16.0-48.0,23,tonic C5,2024-05-31 14:25:40,69c1fe8e8766760338ed5ecbe911aaa3,92.26.12.147,"Mozilla/5.0 (Windows NT 10.0; Win64; x64) AppleWebKit/537.36 (KHTML, like Gecko) Chrome/125.0.0.0 Safari/537.36 Edg/125.0.0.0",WebKit,Edge,125.0.0.0,Windows,10.0,https://app.prolific.com/,"en-GB,en;q=0.9,en-US;q=0.8",x8c67z,attn_length_easy_1.mp3,exposure,True,attncheck,,,,,,
207,,,audio-keyboard-response,66,1042040,0.0-16.0-49.0,23,tonic C5,2024-05-31 14:25:40,69c1fe8e8766760338ed5ecbe911aaa3,92.26.12.147,"Mozilla/5.0 (Windows NT 10.0; Win64; x64) AppleWebKit/537.36 (KHTML, like Gecko) Chrome/125.0.0.0 Safari/537.36 Edg/125.0.0.0",WebKit,Edge,125.0.0.0,Windows,10.0,https://app.prolific.com/,"en-GB,en;q=0.9,en-US;q=0.8",x8c67z,"[""exposure_4s_16.mp3""]",exposure,,exp_noresponse,,,,,,
208,,,audio-keyboard-response,67,1065056,0.0-16.0-50.0,23,tonic C5,2024-05-31 14:25:40,69c1fe8e8766760338ed5ecbe911aaa3,92.26.12.147,"Mozilla/5.0 (Windows NT 10.0; Win64; x64) AppleWebKit/537.36 (KHTML, like Gecko) Chrome/125.0.0.0 Safari/537.36 Edg/125.0.0.0",WebKit,Edge,125.0.0.0,Windows,10.0,https://app.prolific.com/,"en-GB,en;q=0.9,en-US;q=0.8",x8c67z,"[""exposure_4s_22.mp3""]",exposure,,exp_noresponse,,,,,,
209,,,audio-keyboard-response,68,1088249,0.0-16.0-51.0,23,tonic C5,2024-05-31 14:25:40,69c1fe8e8766760338ed5ecbe911aaa3,92.26.12.147,"Mozilla/5.0 (Windows NT 10.0; Win64; x64) AppleWebKit/537.36 (KHTML, like Gecko) Chrome/125.0.0.0 Safari/537.36 Edg/125.0.0.0",WebKit,Edge,125.0.0.0,Windows,10.0,https://app.prolific.com/,"en-GB,en;q=0.9,en-US;q=0.8",x8c67z,"[""exposure_4s_36.mp3""]",exposure,,exp_noresponse,,,,,,
210,,,audio-keyboard-response,69,1111264,0.0-16.0-52.0,23,tonic C5,2024-05-31 14:25:40,69c1fe8e8766760338ed5ecbe911aaa3,92.26.12.147,"Mozilla/5.0 (Windows NT 10.0; Win64; x64) AppleWebKit/537.36 (KHTML, like Gecko) Chrome/125.0.0.0 Safari/537.36 Edg/125.0.0.0",WebKit,Edge,125.0.0.0,Windows,10.0,https://app.prolific.com/,"en-GB,en;q=0.9,en-US;q=0.8",x8c67z,"[""exposure_4s_19.mp3""]",exposure,,exp_noresponse,,,,,,
211,,,audio-keyboard-response,70,1134460,0.0-16.0-53.0,23,tonic C5,2024-05-31 14:25:40,69c1fe8e8766760338ed5ecbe911aaa3,92.26.12.147,"Mozilla/5.0 (Windows NT 10.0; Win64; x64) AppleWebKit/537.36 (KHTML, like Gecko) Chrome/125.0.0.0 Safari/537.36 Edg/125.0.0.0",WebKit,Edge,125.0.0.0,Windows,10.0,https://app.prolific.com/,"en-GB,en;q=0.9,en-US;q=0.8",x8c67z,"[""exposure_4s_45.mp3""]",exposure,,exp_noresponse,,,,,,
212,,,audio-keyboard-response,71,1157467,0.0-16.0-54.0,23,tonic C5,2024-05-31 14:25:40,69c1fe8e8766760338ed5ecbe911aaa3,92.26.12.147,"Mozilla/5.0 (Windows NT 10.0; Win64; x64) AppleWebKit/537.36 (KHTML, like Gecko) Chrome/125.0.0.0 Safari/537.36 Edg/125.0.0.0",WebKit,Edge,125.0.0.0,Windows,10.0,https://app.prolific.com/,"en-GB,en;q=0.9,en-US;q=0.8",x8c67z,"[""exposure_4s_20.mp3""]",exposure,,exp_noresponse,,,,,,
213,8219.0,1,audio-button-response,72,1165688,0.0-16.0-55.0,23,tonic C5,2024-05-31 14:25:40,69c1fe8e8766760338ed5ecbe911aaa3,92.26.12.147,"Mozilla/5.0 (Windows NT 10.0; Win64; x64) AppleWebKit/537.36 (KHTML, like Gecko) Chrome/125.0.0.0 Safari/537.36 Edg/125.0.0.0",WebKit,Edge,125.0.0.0,Windows,10.0,https://app.prolific.com/,"en-GB,en;q=0.9,en-US;q=0.8",x8c67z,attn_length_easy_1.mp3,exposure,True,attncheck,,,,,,
214,10832.0,1,audio-button-response,73,1176520,0.0-16.0-56.0,23,tonic C5,2024-05-31 14:25:40,69c1fe8e8766760338ed5ecbe911aaa3,92.26.12.147,"Mozilla/5.0 (Windows NT 10.0; Win64; x64) AppleWebKit/537.36 (KHTML, like Gecko) Chrome/125.0.0.0 Safari/537.36 Edg/125.0.0.0",WebKit,Edge,125.0.0.0,Windows,10.0,https://app.prolific.com/,"en-GB,en;q=0.9,en-US;q=0.8",x8c67z,attn_length_hard_1.mp3,exposure,True,attncheck,,,,,,
215,11280.0,1,audio-button-response,74,1187799,0.0-16.0-57.0,23,tonic C5,2024-05-31 14:25:40,69c1fe8e8766760338ed5ecbe911aaa3,92.26.12.147,"Mozilla/5.0 (Windows NT 10.0; Win64; x64) AppleWebKit/537.36 (KHTML, like Gecko) Chrome/125.0.0.0 Safari/537.36 Edg/125.0.0.0",WebKit,Edge,125.0.0.0,Windows,10.0,https://app.prolific.com/,"en-GB,en;q=0.9,en-US;q=0.8",x8c67z,attn_length_hard_1.mp3,exposure,True,attncheck,,,,,,
216,,,audio-keyboard-response,75,1210814,0.0-16.0-58.0,23,tonic C5,2024-05-31 14:25:40,69c1fe8e8766760338ed5ecbe911aaa3,92.26.12.147,"Mozilla/5.0 (Windows NT 10.0; Win64; x64) AppleWebKit/537.36 (KHTML, like Gecko) Chrome/125.0.0.0 Safari/537.36 Edg/125.0.0.0",WebKit,Edge,125.0.0.0,Windows,10.0,https://app.prolific.com/,"en-GB,en;q=0.9,en-US;q=0.8",x8c67z,"[""exposure_4s_1.mp3""]",exposure,,exp_noresponse,,,,,,
217,,,audio-keyboard-response,76,1234010,0.0-16.0-59.0,23,tonic C5,2024-05-31 14:25:40,69c1fe8e8766760338ed5ecbe911aaa3,92.26.12.147,"Mozilla/5.0 (Windows NT 10.0; Win64; x64) AppleWebKit/537.36 (KHTML, like Gecko) Chrome/125.0.0.0 Safari/537.36 Edg/125.0.0.0",WebKit,Edge,125.0.0.0,Windows,10.0,https://app.prolific.com/,"en-GB,en;q=0.9,en-US;q=0.8",x8c67z,"[""exposure_4s_42.mp3""]",exposure,,exp_noresponse,,,,,,
218,3683.0, ,html-keyboard-response,77,1237697,0.0-17.0,23,tonic C5,2024-05-31 14:25:40,69c1fe8e8766760338ed5ecbe911aaa3,92.26.12.147,"Mozilla/5.0 (Windows NT 10.0; Win64; x64) AppleWebKit/537.36 (KHTML, like Gecko) Chrome/125.0.0.0 Safari/537.36 Edg/125.0.0.0",WebKit,Edge,125.0.0.0,Windows,10.0,https://app.prolific.com/,"en-GB,en;q=0.9,en-US;q=0.8",x8c67z,"<p>You will now be asked to judge how similar some melodies are to what you have
    just listened to. </p>
    <p><b>Press the space bar to continue.</b></p>",,,,,,,,,
219,3998.0, ,html-keyboard-response,78,1241698,0.0-18.0,23,tonic C5,2024-05-31 14:25:40,69c1fe8e8766760338ed5ecbe911aaa3,92.26.12.147,"Mozilla/5.0 (Windows NT 10.0; Win64; x64) AppleWebKit/537.36 (KHTML, like Gecko) Chrome/125.0.0.0 Safari/537.36 Edg/125.0.0.0",WebKit,Edge,125.0.0.0,Windows,10.0,https://app.prolific.com/,"en-GB,en;q=0.9,en-US;q=0.8",x8c67z,"<p>The changes in the melodies are subtle. If you are not sure, go with your gut feeling.</p>
    <p><b>Press the space bar to continue.</b></p>",,,,,,,,,
220,11032.0,5,audio-slider-response,79,1252800,0.0-19.0-0.0,23,tonic C5,2024-05-31 14:25:40,69c1fe8e8766760338ed5ecbe911aaa3,92.26.12.147,"Mozilla/5.0 (Windows NT 10.0; Win64; x64) AppleWebKit/537.36 (KHTML, like Gecko) Chrome/125.0.0.0 Safari/537.36 Edg/125.0.0.0",WebKit,Edge,125.0.0.0,Windows,10.0,https://app.prolific.com/,"en-GB,en;q=0.9,en-US;q=0.8",x8c67z,agrammatical_7.mp3,grammar_learning,,,4.0,,,,,
221,6789.0,5,audio-slider-response,80,1259657,0.0-19.0-0.1,23,tonic C5,2024-05-31 14:25:40,69c1fe8e8766760338ed5ecbe911aaa3,92.26.12.147,"Mozilla/5.0 (Windows NT 10.0; Win64; x64) AppleWebKit/537.36 (KHTML, like Gecko) Chrome/125.0.0.0 Safari/537.36 Edg/125.0.0.0",WebKit,Edge,125.0.0.0,Windows,10.0,https://app.prolific.com/,"en-GB,en;q=0.9,en-US;q=0.8",x8c67z,agrammatical_3.mp3,grammar_learning,,,4.0,,,,,
222,9112.0,7,audio-slider-response,81,1268840,0.0-19.0-0.2,23,tonic C5,2024-05-31 14:25:40,69c1fe8e8766760338ed5ecbe911aaa3,92.26.12.147,"Mozilla/5.0 (Windows NT 10.0; Win64; x64) AppleWebKit/537.36 (KHTML, like Gecko) Chrome/125.0.0.0 Safari/537.36 Edg/125.0.0.0",WebKit,Edge,125.0.0.0,Windows,10.0,https://app.prolific.com/,"en-GB,en;q=0.9,en-US;q=0.8",x8c67z,grammatical_5.mp3,grammar_learning,,,4.0,,,,,
223,8669.0,5,audio-slider-response,82,1277506,0.0-19.0-0.3,23,tonic C5,2024-05-31 14:25:40,69c1fe8e8766760338ed5ecbe911aaa3,92.26.12.147,"Mozilla/5.0 (Windows NT 10.0; Win64; x64) AppleWebKit/537.36 (KHTML, like Gecko) Chrome/125.0.0.0 Safari/537.36 Edg/125.0.0.0",WebKit,Edge,125.0.0.0,Windows,10.0,https://app.prolific.com/,"en-GB,en;q=0.9,en-US;q=0.8",x8c67z,grammatical_2.mp3,grammar_learning,,,4.0,,,,,
224,7869.0,4,audio-slider-response,83,1285378,0.0-19.0-0.4,23,tonic C5,2024-05-31 14:25:40,69c1fe8e8766760338ed5ecbe911aaa3,92.26.12.147,"Mozilla/5.0 (Windows NT 10.0; Win64; x64) AppleWebKit/537.36 (KHTML, like Gecko) Chrome/125.0.0.0 Safari/537.36 Edg/125.0.0.0",WebKit,Edge,125.0.0.0,Windows,10.0,https://app.prolific.com/,"en-GB,en;q=0.9,en-US;q=0.8",x8c67z,grammatical_1.mp3,grammar_learning,,,4.0,,,,,
225,10501.0,5,audio-slider-response,84,1295956,0.0-19.0-0.5,23,tonic C5,2024-05-31 14:25:40,69c1fe8e8766760338ed5ecbe911aaa3,92.26.12.147,"Mozilla/5.0 (Windows NT 10.0; Win64; x64) AppleWebKit/537.36 (KHTML, like Gecko) Chrome/125.0.0.0 Safari/537.36 Edg/125.0.0.0",WebKit,Edge,125.0.0.0,Windows,10.0,https://app.prolific.com/,"en-GB,en;q=0.9,en-US;q=0.8",x8c67z,agrammatical_6.mp3,grammar_learning,,,4.0,,,,,
226,5640.0,2,audio-slider-response,85,1301668,0.0-19.0-0.6,23,tonic C5,2024-05-31 14:25:40,69c1fe8e8766760338ed5ecbe911aaa3,92.26.12.147,"Mozilla/5.0 (Windows NT 10.0; Win64; x64) AppleWebKit/537.36 (KHTML, like Gecko) Chrome/125.0.0.0 Safari/537.36 Edg/125.0.0.0",WebKit,Edge,125.0.0.0,Windows,10.0,https://app.prolific.com/,"en-GB,en;q=0.9,en-US;q=0.8",x8c67z,agrammatical_8.mp3,grammar_learning,,,4.0,,,,,
227,4749.0,2,audio-slider-response,86,1306505,0.0-19.0-0.7,23,tonic C5,2024-05-31 14:25:40,69c1fe8e8766760338ed5ecbe911aaa3,92.26.12.147,"Mozilla/5.0 (Windows NT 10.0; Win64; x64) AppleWebKit/537.36 (KHTML, like Gecko) Chrome/125.0.0.0 Safari/537.36 Edg/125.0.0.0",WebKit,Edge,125.0.0.0,Windows,10.0,https://app.prolific.com/,"en-GB,en;q=0.9,en-US;q=0.8",x8c67z,agrammatical_4.mp3,grammar_learning,,,4.0,,,,,
228,3389.0,3,audio-slider-response,87,1309895,0.0-19.0-0.8,23,tonic C5,2024-05-31 14:25:40,69c1fe8e8766760338ed5ecbe911aaa3,92.26.12.147,"Mozilla/5.0 (Windows NT 10.0; Win64; x64) AppleWebKit/537.36 (KHTML, like Gecko) Chrome/125.0.0.0 Safari/537.36 Edg/125.0.0.0",WebKit,Edge,125.0.0.0,Windows,10.0,https://app.prolific.com/,"en-GB,en;q=0.9,en-US;q=0.8",x8c67z,grammatical_4.mp3,grammar_learning,,,4.0,,,,,
229,4651.0,6,audio-slider-response,88,1314632,0.0-19.0-0.9,23,tonic C5,2024-05-31 14:25:40,69c1fe8e8766760338ed5ecbe911aaa3,92.26.12.147,"Mozilla/5.0 (Windows NT 10.0; Win64; x64) AppleWebKit/537.36 (KHTML, like Gecko) Chrome/125.0.0.0 Safari/537.36 Edg/125.0.0.0",WebKit,Edge,125.0.0.0,Windows,10.0,https://app.prolific.com/,"en-GB,en;q=0.9,en-US;q=0.8",x8c67z,grammatical_7.mp3,grammar_learning,,,4.0,,,,,
230,7008.0,4,audio-slider-response,89,1321645,0.0-19.0-0.10,23,tonic C5,2024-05-31 14:25:40,69c1fe8e8766760338ed5ecbe911aaa3,92.26.12.147,"Mozilla/5.0 (Windows NT 10.0; Win64; x64) AppleWebKit/537.36 (KHTML, like Gecko) Chrome/125.0.0.0 Safari/537.36 Edg/125.0.0.0",WebKit,Edge,125.0.0.0,Windows,10.0,https://app.prolific.com/,"en-GB,en;q=0.9,en-US;q=0.8",x8c67z,grammatical_6.mp3,grammar_learning,,,4.0,,,,,
231,8739.0,4,audio-slider-response,90,1330461,0.0-19.0-0.11,23,tonic C5,2024-05-31 14:25:40,69c1fe8e8766760338ed5ecbe911aaa3,92.26.12.147,"Mozilla/5.0 (Windows NT 10.0; Win64; x64) AppleWebKit/537.36 (KHTML, like Gecko) Chrome/125.0.0.0 Safari/537.36 Edg/125.0.0.0",WebKit,Edge,125.0.0.0,Windows,10.0,https://app.prolific.com/,"en-GB,en;q=0.9,en-US;q=0.8",x8c67z,agrammatical_2.mp3,grammar_learning,,,4.0,,,,,
232,11949.0,5,audio-slider-response,91,1342486,0.0-19.0-0.12,23,tonic C5,2024-05-31 14:25:40,69c1fe8e8766760338ed5ecbe911aaa3,92.26.12.147,"Mozilla/5.0 (Windows NT 10.0; Win64; x64) AppleWebKit/537.36 (KHTML, like Gecko) Chrome/125.0.0.0 Safari/537.36 Edg/125.0.0.0",WebKit,Edge,125.0.0.0,Windows,10.0,https://app.prolific.com/,"en-GB,en;q=0.9,en-US;q=0.8",x8c67z,grammatical_8.mp3,grammar_learning,,,4.0,,,,,
233,7240.0,4,audio-slider-response,92,1349808,0.0-19.0-0.13,23,tonic C5,2024-05-31 14:25:40,69c1fe8e8766760338ed5ecbe911aaa3,92.26.12.147,"Mozilla/5.0 (Windows NT 10.0; Win64; x64) AppleWebKit/537.36 (KHTML, like Gecko) Chrome/125.0.0.0 Safari/537.36 Edg/125.0.0.0",WebKit,Edge,125.0.0.0,Windows,10.0,https://app.prolific.com/,"en-GB,en;q=0.9,en-US;q=0.8",x8c67z,agrammatical_1.mp3,grammar_learning,,,4.0,,,,,
234,6928.0,3,audio-slider-response,93,1356812,0.0-19.0-0.14,23,tonic C5,2024-05-31 14:25:40,69c1fe8e8766760338ed5ecbe911aaa3,92.26.12.147,"Mozilla/5.0 (Windows NT 10.0; Win64; x64) AppleWebKit/537.36 (KHTML, like Gecko) Chrome/125.0.0.0 Safari/537.36 Edg/125.0.0.0",WebKit,Edge,125.0.0.0,Windows,10.0,https://app.prolific.com/,"en-GB,en;q=0.9,en-US;q=0.8",x8c67z,agrammatical_5.mp3,grammar_learning,,,4.0,,,,,
235,10461.0,3,audio-slider-response,94,1367276,0.0-19.0-0.15,23,tonic C5,2024-05-31 14:25:40,69c1fe8e8766760338ed5ecbe911aaa3,92.26.12.147,"Mozilla/5.0 (Windows NT 10.0; Win64; x64) AppleWebKit/537.36 (KHTML, like Gecko) Chrome/125.0.0.0 Safari/537.36 Edg/125.0.0.0",WebKit,Edge,125.0.0.0,Windows,10.0,https://app.prolific.com/,"en-GB,en;q=0.9,en-US;q=0.8",x8c67z,grammatical_3.mp3,grammar_learning,,,4.0,,,,,
236,22892.0,"{""prolific_id"":""higher notes, faster tempo""}",survey-html-form,95,1390170,0.0-20.0,23,tonic C5,2024-05-31 14:25:40,69c1fe8e8766760338ed5ecbe911aaa3,92.26.12.147,"Mozilla/5.0 (Windows NT 10.0; Win64; x64) AppleWebKit/537.36 (KHTML, like Gecko) Chrome/125.0.0.0 Safari/537.36 Edg/125.0.0.0",WebKit,Edge,125.0.0.0,Windows,10.0,https://app.prolific.com/,"en-GB,en;q=0.9,en-US;q=0.8",x8c67z,,,,,,,,,,
237,2903.0, ,html-keyboard-response,96,1393075,0.0-21.0,23,tonic C5,2024-05-31 14:25:40,69c1fe8e8766760338ed5ecbe911aaa3,92.26.12.147,"Mozilla/5.0 (Windows NT 10.0; Win64; x64) AppleWebKit/537.36 (KHTML, like Gecko) Chrome/125.0.0.0 Safari/537.36 Edg/125.0.0.0",WebKit,Edge,125.0.0.0,Windows,10.0,https://app.prolific.com/,"en-GB,en;q=0.9,en-US;q=0.8",x8c67z,"<p>In this part of the experiment, you will presented with two melodies in succession. 
    <p><b>Press the space bar to continue.</b></p>",,,,,,,,,
238,2541.0, ,html-keyboard-response,97,1395619,0.0-22.0,23,tonic C5,2024-05-31 14:25:40,69c1fe8e8766760338ed5ecbe911aaa3,92.26.12.147,"Mozilla/5.0 (Windows NT 10.0; Win64; x64) AppleWebKit/537.36 (KHTML, like Gecko) Chrome/125.0.0.0 Safari/537.36 Edg/125.0.0.0",WebKit,Edge,125.0.0.0,Windows,10.0,https://app.prolific.com/,"en-GB,en;q=0.9,en-US;q=0.8",x8c67z,"<p>The melodies are nearly identical, but have either an added accent or one different note. </p>
    <p><b>Press the space bar to continue.</b></p>",,,,,,,,,
