rt,response,trial_type,trial_index,time_elapsed,internal_node_id,run_id,condition,recorded_at,source_code_version,ip,user_agent,device,browser,browser_version,platform,platform_version,referer,accept_language,subject,stimulus,task,correct,subtask,slider_start,accent,high_IC,accent_chosen,high_IC_chosen,question_order
36924,"{""prolific_id"":""631a68ee10ec68377cb03457""}",survey-html-form,0,36926,0.0-0.0,20,tonic Cs5,2024-06-02 19:23:40,6002660e01f3b1b72159da84d3eceb55,174.82.68.72,"Mozilla/5.0 (Macintosh; Intel Mac OS X 10_15_7) AppleWebKit/537.36 (KHTML, like Gecko) Chrome/125.0.0.0 Safari/537.36",Macintosh,Chrome,125.0.0.0,OS X,10_15_7,https://app.prolific.com/,"en-US,en;q=0.9",dykydm,,,,,,,,,,
5143, ,html-keyboard-response,1,42072,0.0-1.0,20,tonic Cs5,2024-06-02 19:23:40,6002660e01f3b1b72159da84d3eceb55,174.82.68.72,"Mozilla/5.0 (Macintosh; Intel Mac OS X 10_15_7) AppleWebKit/537.36 (KHTML, like Gecko) Chrome/125.0.0.0 Safari/537.36",Macintosh,Chrome,125.0.0.0,OS X,10_15_7,https://app.prolific.com/,"en-US,en;q=0.9",dykydm,"
    <p>Please complete the experiment in a quiet place.
      We highly recommend using headphones.</p>

    </p align = 'justify'> <b>Press the space bar to proceed.</b> </p>",,,,,,,,,
1590, ,html-keyboard-response,2,43663,0.0-2.0,20,tonic Cs5,2024-06-02 19:23:40,6002660e01f3b1b72159da84d3eceb55,174.82.68.72,"Mozilla/5.0 (Macintosh; Intel Mac OS X 10_15_7) AppleWebKit/537.36 (KHTML, like Gecko) Chrome/125.0.0.0 Safari/537.36",Macintosh,Chrome,125.0.0.0,OS X,10_15_7,https://app.prolific.com/,"en-US,en;q=0.9",dykydm,"
    <p>A series of soundchecks will now be played to help you adjust the volume
      to a comfortable level. </p>

    </p align = 'justify'> <b>Press the space bar to proceed.</b> </p>",,,,,,,,,
6165,1,audio-button-response,3,50183,0.0-3.0-0.0,20,tonic Cs5,2024-06-02 19:23:40,6002660e01f3b1b72159da84d3eceb55,174.82.68.72,"Mozilla/5.0 (Macintosh; Intel Mac OS X 10_15_7) AppleWebKit/537.36 (KHTML, like Gecko) Chrome/125.0.0.0 Safari/537.36",Macintosh,Chrome,125.0.0.0,OS X,10_15_7,https://app.prolific.com/,"en-US,en;q=0.9",dykydm,grammatical_1.mp3,,,,,,,,,
6860, ,html-keyboard-response,4,57043,0.0-4.0,20,tonic Cs5,2024-06-02 19:23:40,6002660e01f3b1b72159da84d3eceb55,174.82.68.72,"Mozilla/5.0 (Macintosh; Intel Mac OS X 10_15_7) AppleWebKit/537.36 (KHTML, like Gecko) Chrome/125.0.0.0 Safari/537.36",Macintosh,Chrome,125.0.0.0,OS X,10_15_7,https://app.prolific.com/,"en-US,en;q=0.9",dykydm,"<p width = 300 px>
    You will now hear two melodies in succession. 
    The notes in each melody are the same, but there is an accent on one note for one of the melodies. 
    <b>Listen for which melody has the accent.</b>
    </p>
    
    Press the space bar to continue.",,,,,,,,,
5148, ,html-keyboard-response,5,62192,0.0-5.0,20,tonic Cs5,2024-06-02 19:23:40,6002660e01f3b1b72159da84d3eceb55,174.82.68.72,"Mozilla/5.0 (Macintosh; Intel Mac OS X 10_15_7) AppleWebKit/537.36 (KHTML, like Gecko) Chrome/125.0.0.0 Safari/537.36",Macintosh,Chrome,125.0.0.0,OS X,10_15_7,https://app.prolific.com/,"en-US,en;q=0.9",dykydm,"<p width = 300 px>
    <b>You must score at least 2/3 to proceed with the experiment.</b>
    </p>
    
    Press the space bar to continue.",,,,,,,,,
7036,0,audio-button-response,6,69323,0.0-6.0,20,tonic Cs5,2024-06-02 19:23:40,6002660e01f3b1b72159da84d3eceb55,174.82.68.72,"Mozilla/5.0 (Macintosh; Intel Mac OS X 10_15_7) AppleWebKit/537.36 (KHTML, like Gecko) Chrome/125.0.0.0 Safari/537.36",Macintosh,Chrome,125.0.0.0,OS X,10_15_7,https://app.prolific.com/,"en-US,en;q=0.9",dykydm,fc_accents_32_1.mp3,soundcheck,false,,,,,,,
2527, ,html-keyboard-response,7,71852,0.0-7.0,20,tonic Cs5,2024-06-02 19:23:40,6002660e01f3b1b72159da84d3eceb55,174.82.68.72,"Mozilla/5.0 (Macintosh; Intel Mac OS X 10_15_7) AppleWebKit/537.36 (KHTML, like Gecko) Chrome/125.0.0.0 Safari/537.36",Macintosh,Chrome,125.0.0.0,OS X,10_15_7,https://app.prolific.com/,"en-US,en;q=0.9",dykydm,<p>Incorrect.</p> Press the space bar to continue.,,,,,,,,,
7018,1,audio-button-response,8,78959,0.0-8.0,20,tonic Cs5,2024-06-02 19:23:40,6002660e01f3b1b72159da84d3eceb55,174.82.68.72,"Mozilla/5.0 (Macintosh; Intel Mac OS X 10_15_7) AppleWebKit/537.36 (KHTML, like Gecko) Chrome/125.0.0.0 Safari/537.36",Macintosh,Chrome,125.0.0.0,OS X,10_15_7,https://app.prolific.com/,"en-US,en;q=0.9",dykydm,fc_accents_56_4.mp3,soundcheck,true,,,,,,,
874, ,html-keyboard-response,9,79836,0.0-9.0,20,tonic Cs5,2024-06-02 19:23:40,6002660e01f3b1b72159da84d3eceb55,174.82.68.72,"Mozilla/5.0 (Macintosh; Intel Mac OS X 10_15_7) AppleWebKit/537.36 (KHTML, like Gecko) Chrome/125.0.0.0 Safari/537.36",Macintosh,Chrome,125.0.0.0,OS X,10_15_7,https://app.prolific.com/,"en-US,en;q=0.9",dykydm,<p>Correct!</p> Press the space bar to continue.,,,,,,,,,
7715,1,audio-button-response,10,87627,0.0-10.0,20,tonic Cs5,2024-06-02 19:23:40,6002660e01f3b1b72159da84d3eceb55,174.82.68.72,"Mozilla/5.0 (Macintosh; Intel Mac OS X 10_15_7) AppleWebKit/537.36 (KHTML, like Gecko) Chrome/125.0.0.0 Safari/537.36",Macintosh,Chrome,125.0.0.0,OS X,10_15_7,https://app.prolific.com/,"en-US,en;q=0.9",dykydm,fc_accents_54_4.mp3,soundcheck,true,,,,,,,
839, ,html-keyboard-response,11,88467,0.0-11.0,20,tonic Cs5,2024-06-02 19:23:40,6002660e01f3b1b72159da84d3eceb55,174.82.68.72,"Mozilla/5.0 (Macintosh; Intel Mac OS X 10_15_7) AppleWebKit/537.36 (KHTML, like Gecko) Chrome/125.0.0.0 Safari/537.36",Macintosh,Chrome,125.0.0.0,OS X,10_15_7,https://app.prolific.com/,"en-US,en;q=0.9",dykydm,<p>Correct!</p> Press the space bar to continue.,,,,,,,,,
18257, ,html-keyboard-response,12,106725,0.0-12.0,20,tonic Cs5,2024-06-02 19:23:40,6002660e01f3b1b72159da84d3eceb55,174.82.68.72,"Mozilla/5.0 (Macintosh; Intel Mac OS X 10_15_7) AppleWebKit/537.36 (KHTML, like Gecko) Chrome/125.0.0.0 Safari/537.36",Macintosh,Chrome,125.0.0.0,OS X,10_15_7,https://app.prolific.com/,"en-US,en;q=0.9",dykydm,"If you got <b>less than 2/3</b> of the previous soundcheck questions correct, <b>we unfortunately cannot use your data or pay you</b>. Please exit the experiment now.
    
    <p>If you got <b>more than 2/3</b> correct, press the space bar to continue</p>.",,,,,,,,,
6874, ,html-keyboard-response,13,113599,0.0-13.0,20,tonic Cs5,2024-06-02 19:23:40,6002660e01f3b1b72159da84d3eceb55,174.82.68.72,"Mozilla/5.0 (Macintosh; Intel Mac OS X 10_15_7) AppleWebKit/537.36 (KHTML, like Gecko) Chrome/125.0.0.0 Safari/537.36",Macintosh,Chrome,125.0.0.0,OS X,10_15_7,https://app.prolific.com/,"en-US,en;q=0.9",dykydm,"<p>Please listen carefully to the following set of melodies. 
      You will occassionally be asked some basic questions about some of the melodies to check your attention level. </p>
    <p><b>Press the space bar to continue.</b></p>",,,,,,,,,
3854, ,html-keyboard-response,14,117454,0.0-14.0,20,tonic Cs5,2024-06-02 19:23:40,6002660e01f3b1b72159da84d3eceb55,174.82.68.72,"Mozilla/5.0 (Macintosh; Intel Mac OS X 10_15_7) AppleWebKit/537.36 (KHTML, like Gecko) Chrome/125.0.0.0 Safari/537.36",Macintosh,Chrome,125.0.0.0,OS X,10_15_7,https://app.prolific.com/,"en-US,en;q=0.9",dykydm,"<p>The attention questions vary in difficulty, but you must get at least some questions correct for us to pay you.</p>
    <p><b>Press the space bar to continue.</b></p>",,,,,,,,,
1503, ,html-keyboard-response,15,118958,0.0-15.0,20,tonic Cs5,2024-06-02 19:23:40,6002660e01f3b1b72159da84d3eceb55,174.82.68.72,"Mozilla/5.0 (Macintosh; Intel Mac OS X 10_15_7) AppleWebKit/537.36 (KHTML, like Gecko) Chrome/125.0.0.0 Safari/537.36",Macintosh,Chrome,125.0.0.0,OS X,10_15_7,https://app.prolific.com/,"en-US,en;q=0.9",dykydm,"
    This part of the experiment should take <b>15-20 minutes</b>. 
    <p><b>Press the space bar to begin.</b></p>",,,,,,,,,
null,null,audio-keyboard-response,16,142209,0.0-16.0-0.0,20,tonic Cs5,2024-06-02 19:23:40,6002660e01f3b1b72159da84d3eceb55,174.82.68.72,"Mozilla/5.0 (Macintosh; Intel Mac OS X 10_15_7) AppleWebKit/537.36 (KHTML, like Gecko) Chrome/125.0.0.0 Safari/537.36",Macintosh,Chrome,125.0.0.0,OS X,10_15_7,https://app.prolific.com/,"en-US,en;q=0.9",dykydm,"[""exposure_4s_14.mp3""]",exposure,,exp_noresponse,,,,,,
6519,1,audio-slider-response,17,148866,0.0-16.0-1.0,20,tonic Cs5,2024-06-02 19:23:40,6002660e01f3b1b72159da84d3eceb55,174.82.68.72,"Mozilla/5.0 (Macintosh; Intel Mac OS X 10_15_7) AppleWebKit/537.36 (KHTML, like Gecko) Chrome/125.0.0.0 Safari/537.36",Macintosh,Chrome,125.0.0.0,OS X,10_15_7,https://app.prolific.com/,"en-US,en;q=0.9",dykydm,"[""grammatical_2.mp3""]",exposure,,exp_liking,4,,,,,
null,null,audio-keyboard-response,18,171868,0.0-16.0-2.0,20,tonic Cs5,2024-06-02 19:23:40,6002660e01f3b1b72159da84d3eceb55,174.82.68.72,"Mozilla/5.0 (Macintosh; Intel Mac OS X 10_15_7) AppleWebKit/537.36 (KHTML, like Gecko) Chrome/125.0.0.0 Safari/537.36",Macintosh,Chrome,125.0.0.0,OS X,10_15_7,https://app.prolific.com/,"en-US,en;q=0.9",dykydm,"[""exposure_4s_14.mp3""]",exposure,,exp_noresponse,,,,,,
null,null,audio-keyboard-response,19,194993,0.0-16.0-3.0,20,tonic Cs5,2024-06-02 19:23:40,6002660e01f3b1b72159da84d3eceb55,174.82.68.72,"Mozilla/5.0 (Macintosh; Intel Mac OS X 10_15_7) AppleWebKit/537.36 (KHTML, like Gecko) Chrome/125.0.0.0 Safari/537.36",Macintosh,Chrome,125.0.0.0,OS X,10_15_7,https://app.prolific.com/,"en-US,en;q=0.9",dykydm,"[""exposure_4s_35.mp3""]",exposure,,exp_noresponse,,,,,,
null,null,audio-keyboard-response,20,218183,0.0-16.0-4.0,20,tonic Cs5,2024-06-02 19:23:40,6002660e01f3b1b72159da84d3eceb55,174.82.68.72,"Mozilla/5.0 (Macintosh; Intel Mac OS X 10_15_7) AppleWebKit/537.36 (KHTML, like Gecko) Chrome/125.0.0.0 Safari/537.36",Macintosh,Chrome,125.0.0.0,OS X,10_15_7,https://app.prolific.com/,"en-US,en;q=0.9",dykydm,"[""exposure_4s_5.mp3""]",exposure,,exp_noresponse,,,,,,
null,null,audio-keyboard-response,21,241313,0.0-16.0-5.0,20,tonic Cs5,2024-06-02 19:23:40,6002660e01f3b1b72159da84d3eceb55,174.82.68.72,"Mozilla/5.0 (Macintosh; Intel Mac OS X 10_15_7) AppleWebKit/537.36 (KHTML, like Gecko) Chrome/125.0.0.0 Safari/537.36",Macintosh,Chrome,125.0.0.0,OS X,10_15_7,https://app.prolific.com/,"en-US,en;q=0.9",dykydm,"[""exposure_4s_19.mp3""]",exposure,,exp_noresponse,,,,,,
null,null,audio-keyboard-response,22,264433,0.0-16.0-6.0,20,tonic Cs5,2024-06-02 19:23:40,6002660e01f3b1b72159da84d3eceb55,174.82.68.72,"Mozilla/5.0 (Macintosh; Intel Mac OS X 10_15_7) AppleWebKit/537.36 (KHTML, like Gecko) Chrome/125.0.0.0 Safari/537.36",Macintosh,Chrome,125.0.0.0,OS X,10_15_7,https://app.prolific.com/,"en-US,en;q=0.9",dykydm,"[""exposure_4s_25.mp3""]",exposure,,exp_noresponse,,,,,,
12701,1,audio-button-response,23,277223,0.0-16.0-7.0,20,tonic Cs5,2024-06-02 19:23:40,6002660e01f3b1b72159da84d3eceb55,174.82.68.72,"Mozilla/5.0 (Macintosh; Intel Mac OS X 10_15_7) AppleWebKit/537.36 (KHTML, like Gecko) Chrome/125.0.0.0 Safari/537.36",Macintosh,Chrome,125.0.0.0,OS X,10_15_7,https://app.prolific.com/,"en-US,en;q=0.9",dykydm,attn_length_int_1.mp3,exposure,true,attncheck,,,,,,
null,null,audio-keyboard-response,24,300352,0.0-16.0-8.0,20,tonic Cs5,2024-06-02 19:23:40,6002660e01f3b1b72159da84d3eceb55,174.82.68.72,"Mozilla/5.0 (Macintosh; Intel Mac OS X 10_15_7) AppleWebKit/537.36 (KHTML, like Gecko) Chrome/125.0.0.0 Safari/537.36",Macintosh,Chrome,125.0.0.0,OS X,10_15_7,https://app.prolific.com/,"en-US,en;q=0.9",dykydm,"[""exposure_4s_6.mp3""]",exposure,,exp_noresponse,,,,,,
8522,1,audio-button-response,25,308876,0.0-16.0-9.0,20,tonic Cs5,2024-06-02 19:23:40,6002660e01f3b1b72159da84d3eceb55,174.82.68.72,"Mozilla/5.0 (Macintosh; Intel Mac OS X 10_15_7) AppleWebKit/537.36 (KHTML, like Gecko) Chrome/125.0.0.0 Safari/537.36",Macintosh,Chrome,125.0.0.0,OS X,10_15_7,https://app.prolific.com/,"en-US,en;q=0.9",dykydm,attn_length_int_1.mp3,exposure,true,attncheck,,,,,,
null,null,audio-keyboard-response,26,332021,0.0-16.0-10.0,20,tonic Cs5,2024-06-02 19:23:40,6002660e01f3b1b72159da84d3eceb55,174.82.68.72,"Mozilla/5.0 (Macintosh; Intel Mac OS X 10_15_7) AppleWebKit/537.36 (KHTML, like Gecko) Chrome/125.0.0.0 Safari/537.36",Macintosh,Chrome,125.0.0.0,OS X,10_15_7,https://app.prolific.com/,"en-US,en;q=0.9",dykydm,"[""exposure_4s_31.mp3""]",exposure,,exp_noresponse,,,,,,
null,null,audio-keyboard-response,27,355138,0.0-16.0-11.0,20,tonic Cs5,2024-06-02 19:23:40,6002660e01f3b1b72159da84d3eceb55,174.82.68.72,"Mozilla/5.0 (Macintosh; Intel Mac OS X 10_15_7) AppleWebKit/537.36 (KHTML, like Gecko) Chrome/125.0.0.0 Safari/537.36",Macintosh,Chrome,125.0.0.0,OS X,10_15_7,https://app.prolific.com/,"en-US,en;q=0.9",dykydm,"[""exposure_4s_29.mp3""]",exposure,,exp_noresponse,,,,,,
null,null,audio-keyboard-response,28,378141,0.0-16.0-12.0,20,tonic Cs5,2024-06-02 19:23:40,6002660e01f3b1b72159da84d3eceb55,174.82.68.72,"Mozilla/5.0 (Macintosh; Intel Mac OS X 10_15_7) AppleWebKit/537.36 (KHTML, like Gecko) Chrome/125.0.0.0 Safari/537.36",Macintosh,Chrome,125.0.0.0,OS X,10_15_7,https://app.prolific.com/,"en-US,en;q=0.9",dykydm,"[""exposure_4s_31.mp3""]",exposure,,exp_noresponse,,,,,,
null,null,audio-keyboard-response,29,401261,0.0-16.0-13.0,20,tonic Cs5,2024-06-02 19:23:40,6002660e01f3b1b72159da84d3eceb55,174.82.68.72,"Mozilla/5.0 (Macintosh; Intel Mac OS X 10_15_7) AppleWebKit/537.36 (KHTML, like Gecko) Chrome/125.0.0.0 Safari/537.36",Macintosh,Chrome,125.0.0.0,OS X,10_15_7,https://app.prolific.com/,"en-US,en;q=0.9",dykydm,"[""exposure_4s_45.mp3""]",exposure,,exp_noresponse,,,,,,
null,null,audio-keyboard-response,30,425255,0.0-16.0-14.0,20,tonic Cs5,2024-06-02 19:23:40,6002660e01f3b1b72159da84d3eceb55,174.82.68.72,"Mozilla/5.0 (Macintosh; Intel Mac OS X 10_15_7) AppleWebKit/537.36 (KHTML, like Gecko) Chrome/125.0.0.0 Safari/537.36",Macintosh,Chrome,125.0.0.0,OS X,10_15_7,https://app.prolific.com/,"en-US,en;q=0.9",dykydm,"[""exposure_4s_1.mp3""]",exposure,,exp_noresponse,,,,,,
null,null,audio-keyboard-response,31,448370,0.0-16.0-15.0,20,tonic Cs5,2024-06-02 19:23:40,6002660e01f3b1b72159da84d3eceb55,174.82.68.72,"Mozilla/5.0 (Macintosh; Intel Mac OS X 10_15_7) AppleWebKit/537.36 (KHTML, like Gecko) Chrome/125.0.0.0 Safari/537.36",Macintosh,Chrome,125.0.0.0,OS X,10_15_7,https://app.prolific.com/,"en-US,en;q=0.9",dykydm,"[""exposure_4s_17.mp3""]",exposure,,exp_noresponse,,,,,,
null,null,audio-keyboard-response,32,471372,0.0-16.0-16.0,20,tonic Cs5,2024-06-02 19:23:40,6002660e01f3b1b72159da84d3eceb55,174.82.68.72,"Mozilla/5.0 (Macintosh; Intel Mac OS X 10_15_7) AppleWebKit/537.36 (KHTML, like Gecko) Chrome/125.0.0.0 Safari/537.36",Macintosh,Chrome,125.0.0.0,OS X,10_15_7,https://app.prolific.com/,"en-US,en;q=0.9",dykydm,"[""exposure_4s_45.mp3""]",exposure,,exp_noresponse,,,,,,
8800,1,audio-button-response,33,480284,0.0-16.0-17.0,20,tonic Cs5,2024-06-02 19:23:40,6002660e01f3b1b72159da84d3eceb55,174.82.68.72,"Mozilla/5.0 (Macintosh; Intel Mac OS X 10_15_7) AppleWebKit/537.36 (KHTML, like Gecko) Chrome/125.0.0.0 Safari/537.36",Macintosh,Chrome,125.0.0.0,OS X,10_15_7,https://app.prolific.com/,"en-US,en;q=0.9",dykydm,attn_length_easy_1.mp3,exposure,true,attncheck,,,,,,
8539,1,audio-button-response,34,488828,0.0-16.0-18.0,20,tonic Cs5,2024-06-02 19:23:40,6002660e01f3b1b72159da84d3eceb55,174.82.68.72,"Mozilla/5.0 (Macintosh; Intel Mac OS X 10_15_7) AppleWebKit/537.36 (KHTML, like Gecko) Chrome/125.0.0.0 Safari/537.36",Macintosh,Chrome,125.0.0.0,OS X,10_15_7,https://app.prolific.com/,"en-US,en;q=0.9",dykydm,attn_length_easy_1.mp3,exposure,true,attncheck,,,,,,
null,null,audio-keyboard-response,35,511831,0.0-16.0-19.0,20,tonic Cs5,2024-06-02 19:23:40,6002660e01f3b1b72159da84d3eceb55,174.82.68.72,"Mozilla/5.0 (Macintosh; Intel Mac OS X 10_15_7) AppleWebKit/537.36 (KHTML, like Gecko) Chrome/125.0.0.0 Safari/537.36",Macintosh,Chrome,125.0.0.0,OS X,10_15_7,https://app.prolific.com/,"en-US,en;q=0.9",dykydm,"[""exposure_4s_35.mp3""]",exposure,,exp_noresponse,,,,,,
null,null,audio-keyboard-response,36,534949,0.0-16.0-20.0,20,tonic Cs5,2024-06-02 19:23:40,6002660e01f3b1b72159da84d3eceb55,174.82.68.72,"Mozilla/5.0 (Macintosh; Intel Mac OS X 10_15_7) AppleWebKit/537.36 (KHTML, like Gecko) Chrome/125.0.0.0 Safari/537.36",Macintosh,Chrome,125.0.0.0,OS X,10_15_7,https://app.prolific.com/,"en-US,en;q=0.9",dykydm,"[""exposure_4s_30.mp3""]",exposure,,exp_noresponse,,,,,,
null,null,audio-keyboard-response,37,558064,0.0-16.0-21.0,20,tonic Cs5,2024-06-02 19:23:40,6002660e01f3b1b72159da84d3eceb55,174.82.68.72,"Mozilla/5.0 (Macintosh; Intel Mac OS X 10_15_7) AppleWebKit/537.36 (KHTML, like Gecko) Chrome/125.0.0.0 Safari/537.36",Macintosh,Chrome,125.0.0.0,OS X,10_15_7,https://app.prolific.com/,"en-US,en;q=0.9",dykydm,"[""exposure_4s_22.mp3""]",exposure,,exp_noresponse,,,,,,
null,null,audio-keyboard-response,38,581222,0.0-16.0-22.0,20,tonic Cs5,2024-06-02 19:23:40,6002660e01f3b1b72159da84d3eceb55,174.82.68.72,"Mozilla/5.0 (Macintosh; Intel Mac OS X 10_15_7) AppleWebKit/537.36 (KHTML, like Gecko) Chrome/125.0.0.0 Safari/537.36",Macintosh,Chrome,125.0.0.0,OS X,10_15_7,https://app.prolific.com/,"en-US,en;q=0.9",dykydm,"[""exposure_4s_2.mp3""]",exposure,,exp_noresponse,,,,,,
null,null,audio-keyboard-response,39,604341,0.0-16.0-23.0,20,tonic Cs5,2024-06-02 19:23:40,6002660e01f3b1b72159da84d3eceb55,174.82.68.72,"Mozilla/5.0 (Macintosh; Intel Mac OS X 10_15_7) AppleWebKit/537.36 (KHTML, like Gecko) Chrome/125.0.0.0 Safari/537.36",Macintosh,Chrome,125.0.0.0,OS X,10_15_7,https://app.prolific.com/,"en-US,en;q=0.9",dykydm,"[""exposure_4s_44.mp3""]",exposure,,exp_noresponse,,,,,,
8800,1,audio-button-response,40,613147,0.0-16.0-24.0,20,tonic Cs5,2024-06-02 19:23:40,6002660e01f3b1b72159da84d3eceb55,174.82.68.72,"Mozilla/5.0 (Macintosh; Intel Mac OS X 10_15_7) AppleWebKit/537.36 (KHTML, like Gecko) Chrome/125.0.0.0 Safari/537.36",Macintosh,Chrome,125.0.0.0,OS X,10_15_7,https://app.prolific.com/,"en-US,en;q=0.9",dykydm,attn_length_int_1.mp3,exposure,true,attncheck,,,,,,
null,null,audio-keyboard-response,41,636278,0.0-16.0-25.0,20,tonic Cs5,2024-06-02 19:23:40,6002660e01f3b1b72159da84d3eceb55,174.82.68.72,"Mozilla/5.0 (Macintosh; Intel Mac OS X 10_15_7) AppleWebKit/537.36 (KHTML, like Gecko) Chrome/125.0.0.0 Safari/537.36",Macintosh,Chrome,125.0.0.0,OS X,10_15_7,https://app.prolific.com/,"en-US,en;q=0.9",dykydm,"[""exposure_4s_12.mp3""]",exposure,,exp_noresponse,,,,,,
null,null,audio-keyboard-response,42,660252,0.0-16.0-26.0,20,tonic Cs5,2024-06-02 19:23:40,6002660e01f3b1b72159da84d3eceb55,174.82.68.72,"Mozilla/5.0 (Macintosh; Intel Mac OS X 10_15_7) AppleWebKit/537.36 (KHTML, like Gecko) Chrome/125.0.0.0 Safari/537.36",Macintosh,Chrome,125.0.0.0,OS X,10_15_7,https://app.prolific.com/,"en-US,en;q=0.9",dykydm,"[""exposure_4s_16.mp3""]",exposure,,exp_noresponse,,,,,,
9259,1,audio-button-response,43,669516,0.0-16.0-27.0,20,tonic Cs5,2024-06-02 19:23:40,6002660e01f3b1b72159da84d3eceb55,174.82.68.72,"Mozilla/5.0 (Macintosh; Intel Mac OS X 10_15_7) AppleWebKit/537.36 (KHTML, like Gecko) Chrome/125.0.0.0 Safari/537.36",Macintosh,Chrome,125.0.0.0,OS X,10_15_7,https://app.prolific.com/,"en-US,en;q=0.9",dykydm,attn_length_easy_1.mp3,exposure,true,attncheck,,,,,,
null,null,audio-keyboard-response,44,692636,0.0-16.0-28.0,20,tonic Cs5,2024-06-02 19:23:40,6002660e01f3b1b72159da84d3eceb55,174.82.68.72,"Mozilla/5.0 (Macintosh; Intel Mac OS X 10_15_7) AppleWebKit/537.36 (KHTML, like Gecko) Chrome/125.0.0.0 Safari/537.36",Macintosh,Chrome,125.0.0.0,OS X,10_15_7,https://app.prolific.com/,"en-US,en;q=0.9",dykydm,"[""exposure_4s_34.mp3""]",exposure,,exp_noresponse,,,,,,
null,null,audio-keyboard-response,45,715792,0.0-16.0-29.0,20,tonic Cs5,2024-06-02 19:23:40,6002660e01f3b1b72159da84d3eceb55,174.82.68.72,"Mozilla/5.0 (Macintosh; Intel Mac OS X 10_15_7) AppleWebKit/537.36 (KHTML, like Gecko) Chrome/125.0.0.0 Safari/537.36",Macintosh,Chrome,125.0.0.0,OS X,10_15_7,https://app.prolific.com/,"en-US,en;q=0.9",dykydm,"[""exposure_4s_7.mp3""]",exposure,,exp_noresponse,,,,,,
null,null,audio-keyboard-response,46,739771,0.0-16.0-30.0,20,tonic Cs5,2024-06-02 19:23:40,6002660e01f3b1b72159da84d3eceb55,174.82.68.72,"Mozilla/5.0 (Macintosh; Intel Mac OS X 10_15_7) AppleWebKit/537.36 (KHTML, like Gecko) Chrome/125.0.0.0 Safari/537.36",Macintosh,Chrome,125.0.0.0,OS X,10_15_7,https://app.prolific.com/,"en-US,en;q=0.9",dykydm,"[""exposure_4s_42.mp3""]",exposure,,exp_noresponse,,,,,,
null,null,audio-keyboard-response,47,762773,0.0-16.0-31.0,20,tonic Cs5,2024-06-02 19:23:40,6002660e01f3b1b72159da84d3eceb55,174.82.68.72,"Mozilla/5.0 (Macintosh; Intel Mac OS X 10_15_7) AppleWebKit/537.36 (KHTML, like Gecko) Chrome/125.0.0.0 Safari/537.36",Macintosh,Chrome,125.0.0.0,OS X,10_15_7,https://app.prolific.com/,"en-US,en;q=0.9",dykydm,"[""exposure_4s_14.mp3""]",exposure,,exp_noresponse,,,,,,
8290,1,audio-button-response,48,771064,0.0-16.0-32.0,20,tonic Cs5,2024-06-02 19:23:40,6002660e01f3b1b72159da84d3eceb55,174.82.68.72,"Mozilla/5.0 (Macintosh; Intel Mac OS X 10_15_7) AppleWebKit/537.36 (KHTML, like Gecko) Chrome/125.0.0.0 Safari/537.36",Macintosh,Chrome,125.0.0.0,OS X,10_15_7,https://app.prolific.com/,"en-US,en;q=0.9",dykydm,attn_length_int_1.mp3,exposure,true,attncheck,,,,,,
null,null,audio-keyboard-response,49,794066,0.0-16.0-33.0,20,tonic Cs5,2024-06-02 19:23:40,6002660e01f3b1b72159da84d3eceb55,174.82.68.72,"Mozilla/5.0 (Macintosh; Intel Mac OS X 10_15_7) AppleWebKit/537.36 (KHTML, like Gecko) Chrome/125.0.0.0 Safari/537.36",Macintosh,Chrome,125.0.0.0,OS X,10_15_7,https://app.prolific.com/,"en-US,en;q=0.9",dykydm,"[""exposure_4s_6.mp3""]",exposure,,exp_noresponse,,,,,,
null,null,audio-keyboard-response,50,817182,0.0-16.0-34.0,20,tonic Cs5,2024-06-02 19:23:40,6002660e01f3b1b72159da84d3eceb55,174.82.68.72,"Mozilla/5.0 (Macintosh; Intel Mac OS X 10_15_7) AppleWebKit/537.36 (KHTML, like Gecko) Chrome/125.0.0.0 Safari/537.36",Macintosh,Chrome,125.0.0.0,OS X,10_15_7,https://app.prolific.com/,"en-US,en;q=0.9",dykydm,"[""exposure_4s_38.mp3""]",exposure,,exp_noresponse,,,,,,
null,null,audio-keyboard-response,51,840278,0.0-16.0-35.0,20,tonic Cs5,2024-06-02 19:23:40,6002660e01f3b1b72159da84d3eceb55,174.82.68.72,"Mozilla/5.0 (Macintosh; Intel Mac OS X 10_15_7) AppleWebKit/537.36 (KHTML, like Gecko) Chrome/125.0.0.0 Safari/537.36",Macintosh,Chrome,125.0.0.0,OS X,10_15_7,https://app.prolific.com/,"en-US,en;q=0.9",dykydm,"[""exposure_4s_15.mp3""]",exposure,,exp_noresponse,,,,,,
null,null,audio-keyboard-response,52,863427,0.0-16.0-36.0,20,tonic Cs5,2024-06-02 19:23:40,6002660e01f3b1b72159da84d3eceb55,174.82.68.72,"Mozilla/5.0 (Macintosh; Intel Mac OS X 10_15_7) AppleWebKit/537.36 (KHTML, like Gecko) Chrome/125.0.0.0 Safari/537.36",Macintosh,Chrome,125.0.0.0,OS X,10_15_7,https://app.prolific.com/,"en-US,en;q=0.9",dykydm,"[""exposure_4s_18.mp3""]",exposure,,exp_noresponse,,,,,,
null,null,audio-keyboard-response,53,886429,0.0-16.0-37.0,20,tonic Cs5,2024-06-02 19:23:40,6002660e01f3b1b72159da84d3eceb55,174.82.68.72,"Mozilla/5.0 (Macintosh; Intel Mac OS X 10_15_7) AppleWebKit/537.36 (KHTML, like Gecko) Chrome/125.0.0.0 Safari/537.36",Macintosh,Chrome,125.0.0.0,OS X,10_15_7,https://app.prolific.com/,"en-US,en;q=0.9",dykydm,"[""exposure_4s_18.mp3""]",exposure,,exp_noresponse,,,,,,
null,null,audio-keyboard-response,54,909432,0.0-16.0-38.0,20,tonic Cs5,2024-06-02 19:23:40,6002660e01f3b1b72159da84d3eceb55,174.82.68.72,"Mozilla/5.0 (Macintosh; Intel Mac OS X 10_15_7) AppleWebKit/537.36 (KHTML, like Gecko) Chrome/125.0.0.0 Safari/537.36",Macintosh,Chrome,125.0.0.0,OS X,10_15_7,https://app.prolific.com/,"en-US,en;q=0.9",dykydm,"[""exposure_4s_17.mp3""]",exposure,,exp_noresponse,,,,,,
8731,1,audio-button-response,55,918168,0.0-16.0-39.0,20,tonic Cs5,2024-06-02 19:23:40,6002660e01f3b1b72159da84d3eceb55,174.82.68.72,"Mozilla/5.0 (Macintosh; Intel Mac OS X 10_15_7) AppleWebKit/537.36 (KHTML, like Gecko) Chrome/125.0.0.0 Safari/537.36",Macintosh,Chrome,125.0.0.0,OS X,10_15_7,https://app.prolific.com/,"en-US,en;q=0.9",dykydm,attn_length_easy_1.mp3,exposure,true,attncheck,,,,,,
null,null,audio-keyboard-response,56,941314,0.0-16.0-40.0,20,tonic Cs5,2024-06-02 19:23:40,6002660e01f3b1b72159da84d3eceb55,174.82.68.72,"Mozilla/5.0 (Macintosh; Intel Mac OS X 10_15_7) AppleWebKit/537.36 (KHTML, like Gecko) Chrome/125.0.0.0 Safari/537.36",Macintosh,Chrome,125.0.0.0,OS X,10_15_7,https://app.prolific.com/,"en-US,en;q=0.9",dykydm,"[""exposure_4s_11.mp3""]",exposure,,exp_noresponse,,,,,,
null,null,audio-keyboard-response,57,964316,0.0-16.0-41.0,20,tonic Cs5,2024-06-02 19:23:40,6002660e01f3b1b72159da84d3eceb55,174.82.68.72,"Mozilla/5.0 (Macintosh; Intel Mac OS X 10_15_7) AppleWebKit/537.36 (KHTML, like Gecko) Chrome/125.0.0.0 Safari/537.36",Macintosh,Chrome,125.0.0.0,OS X,10_15_7,https://app.prolific.com/,"en-US,en;q=0.9",dykydm,"[""exposure_4s_18.mp3""]",exposure,,exp_noresponse,,,,,,
null,null,audio-keyboard-response,58,987318,0.0-16.0-42.0,20,tonic Cs5,2024-06-02 19:23:40,6002660e01f3b1b72159da84d3eceb55,174.82.68.72,"Mozilla/5.0 (Macintosh; Intel Mac OS X 10_15_7) AppleWebKit/537.36 (KHTML, like Gecko) Chrome/125.0.0.0 Safari/537.36",Macintosh,Chrome,125.0.0.0,OS X,10_15_7,https://app.prolific.com/,"en-US,en;q=0.9",dykydm,"[""exposure_4s_16.mp3""]",exposure,,exp_noresponse,,,,,,
null,null,audio-keyboard-response,59,1010512,0.0-16.0-43.0,20,tonic Cs5,2024-06-02 19:23:40,6002660e01f3b1b72159da84d3eceb55,174.82.68.72,"Mozilla/5.0 (Macintosh; Intel Mac OS X 10_15_7) AppleWebKit/537.36 (KHTML, like Gecko) Chrome/125.0.0.0 Safari/537.36",Macintosh,Chrome,125.0.0.0,OS X,10_15_7,https://app.prolific.com/,"en-US,en;q=0.9",dykydm,"[""exposure_4s_27.mp3""]",exposure,,exp_noresponse,,,,,,
null,null,audio-keyboard-response,60,1033631,0.0-16.0-44.0,20,tonic Cs5,2024-06-02 19:23:40,6002660e01f3b1b72159da84d3eceb55,174.82.68.72,"Mozilla/5.0 (Macintosh; Intel Mac OS X 10_15_7) AppleWebKit/537.36 (KHTML, like Gecko) Chrome/125.0.0.0 Safari/537.36",Macintosh,Chrome,125.0.0.0,OS X,10_15_7,https://app.prolific.com/,"en-US,en;q=0.9",dykydm,"[""exposure_4s_41.mp3""]",exposure,,exp_noresponse,,,,,,
14263,0,audio-button-response,61,1047958,0.0-16.0-45.0,20,tonic Cs5,2024-06-02 19:23:40,6002660e01f3b1b72159da84d3eceb55,174.82.68.72,"Mozilla/5.0 (Macintosh; Intel Mac OS X 10_15_7) AppleWebKit/537.36 (KHTML, like Gecko) Chrome/125.0.0.0 Safari/537.36",Macintosh,Chrome,125.0.0.0,OS X,10_15_7,https://app.prolific.com/,"en-US,en;q=0.9",dykydm,attn_length_hard_1.mp3,exposure,false,attncheck,,,,,,
null,null,audio-keyboard-response,62,1070961,0.0-16.0-46.0,20,tonic Cs5,2024-06-02 19:23:40,6002660e01f3b1b72159da84d3eceb55,174.82.68.72,"Mozilla/5.0 (Macintosh; Intel Mac OS X 10_15_7) AppleWebKit/537.36 (KHTML, like Gecko) Chrome/125.0.0.0 Safari/537.36",Macintosh,Chrome,125.0.0.0,OS X,10_15_7,https://app.prolific.com/,"en-US,en;q=0.9",dykydm,"[""exposure_4s_5.mp3""]",exposure,,exp_noresponse,,,,,,
null,null,audio-keyboard-response,63,1093965,0.0-16.0-47.0,20,tonic Cs5,2024-06-02 19:23:40,6002660e01f3b1b72159da84d3eceb55,174.82.68.72,"Mozilla/5.0 (Macintosh; Intel Mac OS X 10_15_7) AppleWebKit/537.36 (KHTML, like Gecko) Chrome/125.0.0.0 Safari/537.36",Macintosh,Chrome,125.0.0.0,OS X,10_15_7,https://app.prolific.com/,"en-US,en;q=0.9",dykydm,"[""exposure_4s_1.mp3""]",exposure,,exp_noresponse,,,,,,
null,null,audio-keyboard-response,64,1116968,0.0-16.0-48.0,20,tonic Cs5,2024-06-02 19:23:40,6002660e01f3b1b72159da84d3eceb55,174.82.68.72,"Mozilla/5.0 (Macintosh; Intel Mac OS X 10_15_7) AppleWebKit/537.36 (KHTML, like Gecko) Chrome/125.0.0.0 Safari/537.36",Macintosh,Chrome,125.0.0.0,OS X,10_15_7,https://app.prolific.com/,"en-US,en;q=0.9",dykydm,"[""exposure_4s_29.mp3""]",exposure,,exp_noresponse,,,,,,
null,null,audio-keyboard-response,65,1139970,0.0-16.0-49.0,20,tonic Cs5,2024-06-02 19:23:40,6002660e01f3b1b72159da84d3eceb55,174.82.68.72,"Mozilla/5.0 (Macintosh; Intel Mac OS X 10_15_7) AppleWebKit/537.36 (KHTML, like Gecko) Chrome/125.0.0.0 Safari/537.36",Macintosh,Chrome,125.0.0.0,OS X,10_15_7,https://app.prolific.com/,"en-US,en;q=0.9",dykydm,"[""exposure_4s_45.mp3""]",exposure,,exp_noresponse,,,,,,
null,null,audio-keyboard-response,66,1162975,0.0-16.0-50.0,20,tonic Cs5,2024-06-02 19:23:40,6002660e01f3b1b72159da84d3eceb55,174.82.68.72,"Mozilla/5.0 (Macintosh; Intel Mac OS X 10_15_7) AppleWebKit/537.36 (KHTML, like Gecko) Chrome/125.0.0.0 Safari/537.36",Macintosh,Chrome,125.0.0.0,OS X,10_15_7,https://app.prolific.com/,"en-US,en;q=0.9",dykydm,"[""exposure_4s_18.mp3""]",exposure,,exp_noresponse,,,,,,
null,null,audio-keyboard-response,67,1185978,0.0-16.0-51.0,20,tonic Cs5,2024-06-02 19:23:40,6002660e01f3b1b72159da84d3eceb55,174.82.68.72,"Mozilla/5.0 (Macintosh; Intel Mac OS X 10_15_7) AppleWebKit/537.36 (KHTML, like Gecko) Chrome/125.0.0.0 Safari/537.36",Macintosh,Chrome,125.0.0.0,OS X,10_15_7,https://app.prolific.com/,"en-US,en;q=0.9",dykydm,"[""exposure_4s_18.mp3""]",exposure,,exp_noresponse,,,,,,
null,null,audio-keyboard-response,68,1208982,0.0-16.0-52.0,20,tonic Cs5,2024-06-02 19:23:40,6002660e01f3b1b72159da84d3eceb55,174.82.68.72,"Mozilla/5.0 (Macintosh; Intel Mac OS X 10_15_7) AppleWebKit/537.36 (KHTML, like Gecko) Chrome/125.0.0.0 Safari/537.36",Macintosh,Chrome,125.0.0.0,OS X,10_15_7,https://app.prolific.com/,"en-US,en;q=0.9",dykydm,"[""exposure_4s_30.mp3""]",exposure,,exp_noresponse,,,,,,
null,null,audio-keyboard-response,69,1232098,0.0-16.0-53.0,20,tonic Cs5,2024-06-02 19:23:40,6002660e01f3b1b72159da84d3eceb55,174.82.68.72,"Mozilla/5.0 (Macintosh; Intel Mac OS X 10_15_7) AppleWebKit/537.36 (KHTML, like Gecko) Chrome/125.0.0.0 Safari/537.36",Macintosh,Chrome,125.0.0.0,OS X,10_15_7,https://app.prolific.com/,"en-US,en;q=0.9",dykydm,"[""exposure_4s_21.mp3""]",exposure,,exp_noresponse,,,,,,
null,null,audio-keyboard-response,70,1255184,0.0-16.0-54.0,20,tonic Cs5,2024-06-02 19:23:40,6002660e01f3b1b72159da84d3eceb55,174.82.68.72,"Mozilla/5.0 (Macintosh; Intel Mac OS X 10_15_7) AppleWebKit/537.36 (KHTML, like Gecko) Chrome/125.0.0.0 Safari/537.36",Macintosh,Chrome,125.0.0.0,OS X,10_15_7,https://app.prolific.com/,"en-US,en;q=0.9",dykydm,"[""exposure_4s_32.mp3""]",exposure,,exp_noresponse,,,,,,
9213,1,audio-button-response,71,1264393,0.0-16.0-55.0,20,tonic Cs5,2024-06-02 19:23:40,6002660e01f3b1b72159da84d3eceb55,174.82.68.72,"Mozilla/5.0 (Macintosh; Intel Mac OS X 10_15_7) AppleWebKit/537.36 (KHTML, like Gecko) Chrome/125.0.0.0 Safari/537.36",Macintosh,Chrome,125.0.0.0,OS X,10_15_7,https://app.prolific.com/,"en-US,en;q=0.9",dykydm,attn_length_easy_1.mp3,exposure,true,attncheck,,,,,,
null,null,audio-keyboard-response,72,1287573,0.0-16.0-56.0,20,tonic Cs5,2024-06-02 19:23:40,6002660e01f3b1b72159da84d3eceb55,174.82.68.72,"Mozilla/5.0 (Macintosh; Intel Mac OS X 10_15_7) AppleWebKit/537.36 (KHTML, like Gecko) Chrome/125.0.0.0 Safari/537.36",Macintosh,Chrome,125.0.0.0,OS X,10_15_7,https://app.prolific.com/,"en-US,en;q=0.9",dykydm,"[""exposure_4s_10.mp3""]",exposure,,exp_noresponse,,,,,,
null,null,audio-keyboard-response,73,1310754,0.0-16.0-57.0,20,tonic Cs5,2024-06-02 19:23:40,6002660e01f3b1b72159da84d3eceb55,174.82.68.72,"Mozilla/5.0 (Macintosh; Intel Mac OS X 10_15_7) AppleWebKit/537.36 (KHTML, like Gecko) Chrome/125.0.0.0 Safari/537.36",Macintosh,Chrome,125.0.0.0,OS X,10_15_7,https://app.prolific.com/,"en-US,en;q=0.9",dykydm,"[""exposure_4s_23.mp3""]",exposure,,exp_noresponse,,,,,,
null,null,audio-keyboard-response,74,1333865,0.0-16.0-58.0,20,tonic Cs5,2024-06-02 19:23:40,6002660e01f3b1b72159da84d3eceb55,174.82.68.72,"Mozilla/5.0 (Macintosh; Intel Mac OS X 10_15_7) AppleWebKit/537.36 (KHTML, like Gecko) Chrome/125.0.0.0 Safari/537.36",Macintosh,Chrome,125.0.0.0,OS X,10_15_7,https://app.prolific.com/,"en-US,en;q=0.9",dykydm,"[""exposure_4s_20.mp3""]",exposure,,exp_noresponse,,,,,,
null,null,audio-keyboard-response,75,1356868,0.0-16.0-59.0,20,tonic Cs5,2024-06-02 19:23:40,6002660e01f3b1b72159da84d3eceb55,174.82.68.72,"Mozilla/5.0 (Macintosh; Intel Mac OS X 10_15_7) AppleWebKit/537.36 (KHTML, like Gecko) Chrome/125.0.0.0 Safari/537.36",Macintosh,Chrome,125.0.0.0,OS X,10_15_7,https://app.prolific.com/,"en-US,en;q=0.9",dykydm,"[""exposure_4s_19.mp3""]",exposure,,exp_noresponse,,,,,,
5303, ,html-keyboard-response,76,1362173,0.0-17.0,20,tonic Cs5,2024-06-02 19:23:40,6002660e01f3b1b72159da84d3eceb55,174.82.68.72,"Mozilla/5.0 (Macintosh; Intel Mac OS X 10_15_7) AppleWebKit/537.36 (KHTML, like Gecko) Chrome/125.0.0.0 Safari/537.36",Macintosh,Chrome,125.0.0.0,OS X,10_15_7,https://app.prolific.com/,"en-US,en;q=0.9",dykydm,"<p>You will now be asked to judge how similar some melodies are to what you have
    just listened to. </p>
    <p><b>Press the space bar to continue.</b></p>",,,,,,,,,
2117, ,html-keyboard-response,77,1364292,0.0-18.0,20,tonic Cs5,2024-06-02 19:23:40,6002660e01f3b1b72159da84d3eceb55,174.82.68.72,"Mozilla/5.0 (Macintosh; Intel Mac OS X 10_15_7) AppleWebKit/537.36 (KHTML, like Gecko) Chrome/125.0.0.0 Safari/537.36",Macintosh,Chrome,125.0.0.0,OS X,10_15_7,https://app.prolific.com/,"en-US,en;q=0.9",dykydm,"<p>The changes in the melodies are subtle. If you are not sure, go with your gut feeling.</p>
    <p><b>Press the space bar to continue.</b></p>",,,,,,,,,
5486,7,audio-slider-response,78,1369852,0.0-19.0-0.0,20,tonic Cs5,2024-06-02 19:23:40,6002660e01f3b1b72159da84d3eceb55,174.82.68.72,"Mozilla/5.0 (Macintosh; Intel Mac OS X 10_15_7) AppleWebKit/537.36 (KHTML, like Gecko) Chrome/125.0.0.0 Safari/537.36",Macintosh,Chrome,125.0.0.0,OS X,10_15_7,https://app.prolific.com/,"en-US,en;q=0.9",dykydm,grammatical_5.mp3,grammar_learning,,,4,,,,,
6078,6,audio-slider-response,79,1375929,0.0-19.0-0.1,20,tonic Cs5,2024-06-02 19:23:40,6002660e01f3b1b72159da84d3eceb55,174.82.68.72,"Mozilla/5.0 (Macintosh; Intel Mac OS X 10_15_7) AppleWebKit/537.36 (KHTML, like Gecko) Chrome/125.0.0.0 Safari/537.36",Macintosh,Chrome,125.0.0.0,OS X,10_15_7,https://app.prolific.com/,"en-US,en;q=0.9",dykydm,grammatical_2.mp3,grammar_learning,,,4,,,,,
7041,5,audio-slider-response,80,1383046,0.0-19.0-0.2,20,tonic Cs5,2024-06-02 19:23:40,6002660e01f3b1b72159da84d3eceb55,174.82.68.72,"Mozilla/5.0 (Macintosh; Intel Mac OS X 10_15_7) AppleWebKit/537.36 (KHTML, like Gecko) Chrome/125.0.0.0 Safari/537.36",Macintosh,Chrome,125.0.0.0,OS X,10_15_7,https://app.prolific.com/,"en-US,en;q=0.9",dykydm,grammatical_4.mp3,grammar_learning,,,4,,,,,
5799,6,audio-slider-response,81,1388921,0.0-19.0-0.3,20,tonic Cs5,2024-06-02 19:23:40,6002660e01f3b1b72159da84d3eceb55,174.82.68.72,"Mozilla/5.0 (Macintosh; Intel Mac OS X 10_15_7) AppleWebKit/537.36 (KHTML, like Gecko) Chrome/125.0.0.0 Safari/537.36",Macintosh,Chrome,125.0.0.0,OS X,10_15_7,https://app.prolific.com/,"en-US,en;q=0.9",dykydm,grammatical_7.mp3,grammar_learning,,,4,,,,,
6821,7,audio-slider-response,82,1395819,0.0-19.0-0.4,20,tonic Cs5,2024-06-02 19:23:40,6002660e01f3b1b72159da84d3eceb55,174.82.68.72,"Mozilla/5.0 (Macintosh; Intel Mac OS X 10_15_7) AppleWebKit/537.36 (KHTML, like Gecko) Chrome/125.0.0.0 Safari/537.36",Macintosh,Chrome,125.0.0.0,OS X,10_15_7,https://app.prolific.com/,"en-US,en;q=0.9",dykydm,grammatical_6.mp3,grammar_learning,,,4,,,,,
5648,3,audio-slider-response,83,1401543,0.0-19.0-0.5,20,tonic Cs5,2024-06-02 19:23:40,6002660e01f3b1b72159da84d3eceb55,174.82.68.72,"Mozilla/5.0 (Macintosh; Intel Mac OS X 10_15_7) AppleWebKit/537.36 (KHTML, like Gecko) Chrome/125.0.0.0 Safari/537.36",Macintosh,Chrome,125.0.0.0,OS X,10_15_7,https://app.prolific.com/,"en-US,en;q=0.9",dykydm,agrammatical_6.mp3,grammar_learning,,,4,,,,,
7117,3,audio-slider-response,84,1408751,0.0-19.0-0.6,20,tonic Cs5,2024-06-02 19:23:40,6002660e01f3b1b72159da84d3eceb55,174.82.68.72,"Mozilla/5.0 (Macintosh; Intel Mac OS X 10_15_7) AppleWebKit/537.36 (KHTML, like Gecko) Chrome/125.0.0.0 Safari/537.36",Macintosh,Chrome,125.0.0.0,OS X,10_15_7,https://app.prolific.com/,"en-US,en;q=0.9",dykydm,agrammatical_4.mp3,grammar_learning,,,4,,,,,
8789,7,audio-slider-response,85,1417603,0.0-19.0-0.7,20,tonic Cs5,2024-06-02 19:23:40,6002660e01f3b1b72159da84d3eceb55,174.82.68.72,"Mozilla/5.0 (Macintosh; Intel Mac OS X 10_15_7) AppleWebKit/537.36 (KHTML, like Gecko) Chrome/125.0.0.0 Safari/537.36",Macintosh,Chrome,125.0.0.0,OS X,10_15_7,https://app.prolific.com/,"en-US,en;q=0.9",dykydm,grammatical_8.mp3,grammar_learning,,,4,,,,,
8110,2,audio-slider-response,86,1425782,0.0-19.0-0.8,20,tonic Cs5,2024-06-02 19:23:40,6002660e01f3b1b72159da84d3eceb55,174.82.68.72,"Mozilla/5.0 (Macintosh; Intel Mac OS X 10_15_7) AppleWebKit/537.36 (KHTML, like Gecko) Chrome/125.0.0.0 Safari/537.36",Macintosh,Chrome,125.0.0.0,OS X,10_15_7,https://app.prolific.com/,"en-US,en;q=0.9",dykydm,agrammatical_8.mp3,grammar_learning,,,4,,,,,
7378,2,audio-slider-response,87,1433302,0.0-19.0-0.9,20,tonic Cs5,2024-06-02 19:23:40,6002660e01f3b1b72159da84d3eceb55,174.82.68.72,"Mozilla/5.0 (Macintosh; Intel Mac OS X 10_15_7) AppleWebKit/537.36 (KHTML, like Gecko) Chrome/125.0.0.0 Safari/537.36",Macintosh,Chrome,125.0.0.0,OS X,10_15_7,https://app.prolific.com/,"en-US,en;q=0.9",dykydm,agrammatical_2.mp3,grammar_learning,,,4,,,,,
5805,3,audio-slider-response,88,1439112,0.0-19.0-0.10,20,tonic Cs5,2024-06-02 19:23:40,6002660e01f3b1b72159da84d3eceb55,174.82.68.72,"Mozilla/5.0 (Macintosh; Intel Mac OS X 10_15_7) AppleWebKit/537.36 (KHTML, like Gecko) Chrome/125.0.0.0 Safari/537.36",Macintosh,Chrome,125.0.0.0,OS X,10_15_7,https://app.prolific.com/,"en-US,en;q=0.9",dykydm,grammatical_1.mp3,grammar_learning,,,4,,,,,
5730,3,audio-slider-response,89,1444942,0.0-19.0-0.11,20,tonic Cs5,2024-06-02 19:23:40,6002660e01f3b1b72159da84d3eceb55,174.82.68.72,"Mozilla/5.0 (Macintosh; Intel Mac OS X 10_15_7) AppleWebKit/537.36 (KHTML, like Gecko) Chrome/125.0.0.0 Safari/537.36",Macintosh,Chrome,125.0.0.0,OS X,10_15_7,https://app.prolific.com/,"en-US,en;q=0.9",dykydm,agrammatical_7.mp3,grammar_learning,,,4,,,,,
6577,2,audio-slider-response,90,1451611,0.0-19.0-0.12,20,tonic Cs5,2024-06-02 19:23:40,6002660e01f3b1b72159da84d3eceb55,174.82.68.72,"Mozilla/5.0 (Macintosh; Intel Mac OS X 10_15_7) AppleWebKit/537.36 (KHTML, like Gecko) Chrome/125.0.0.0 Safari/537.36",Macintosh,Chrome,125.0.0.0,OS X,10_15_7,https://app.prolific.com/,"en-US,en;q=0.9",dykydm,agrammatical_3.mp3,grammar_learning,,,4,,,,,
6850,2,audio-slider-response,91,1458535,0.0-19.0-0.13,20,tonic Cs5,2024-06-02 19:23:40,6002660e01f3b1b72159da84d3eceb55,174.82.68.72,"Mozilla/5.0 (Macintosh; Intel Mac OS X 10_15_7) AppleWebKit/537.36 (KHTML, like Gecko) Chrome/125.0.0.0 Safari/537.36",Macintosh,Chrome,125.0.0.0,OS X,10_15_7,https://app.prolific.com/,"en-US,en;q=0.9",dykydm,agrammatical_1.mp3,grammar_learning,,,4,,,,,
5851,2,audio-slider-response,92,1464467,0.0-19.0-0.14,20,tonic Cs5,2024-06-02 19:23:40,6002660e01f3b1b72159da84d3eceb55,174.82.68.72,"Mozilla/5.0 (Macintosh; Intel Mac OS X 10_15_7) AppleWebKit/537.36 (KHTML, like Gecko) Chrome/125.0.0.0 Safari/537.36",Macintosh,Chrome,125.0.0.0,OS X,10_15_7,https://app.prolific.com/,"en-US,en;q=0.9",dykydm,agrammatical_5.mp3,grammar_learning,,,4,,,,,
9410,3,audio-slider-response,93,1474019,0.0-19.0-0.15,20,tonic Cs5,2024-06-02 19:23:40,6002660e01f3b1b72159da84d3eceb55,174.82.68.72,"Mozilla/5.0 (Macintosh; Intel Mac OS X 10_15_7) AppleWebKit/537.36 (KHTML, like Gecko) Chrome/125.0.0.0 Safari/537.36",Macintosh,Chrome,125.0.0.0,OS X,10_15_7,https://app.prolific.com/,"en-US,en;q=0.9",dykydm,grammatical_3.mp3,grammar_learning,,,4,,,,,
14893,"{""prolific_id"":""I listened to the pitches""}",survey-html-form,94,1488915,0.0-20.0,20,tonic Cs5,2024-06-02 19:23:40,6002660e01f3b1b72159da84d3eceb55,174.82.68.72,"Mozilla/5.0 (Macintosh; Intel Mac OS X 10_15_7) AppleWebKit/537.36 (KHTML, like Gecko) Chrome/125.0.0.0 Safari/537.36",Macintosh,Chrome,125.0.0.0,OS X,10_15_7,https://app.prolific.com/,"en-US,en;q=0.9",dykydm,,,,,,,,,,
2823, ,html-keyboard-response,95,1491740,0.0-21.0,20,tonic Cs5,2024-06-02 19:23:40,6002660e01f3b1b72159da84d3eceb55,174.82.68.72,"Mozilla/5.0 (Macintosh; Intel Mac OS X 10_15_7) AppleWebKit/537.36 (KHTML, like Gecko) Chrome/125.0.0.0 Safari/537.36",Macintosh,Chrome,125.0.0.0,OS X,10_15_7,https://app.prolific.com/,"en-US,en;q=0.9",dykydm,"<p>In this part of the experiment, you will presented with two melodies in succession. 
    <p><b>Press the space bar to continue.</b></p>",,,,,,,,,
6705, ,html-keyboard-response,96,1498447,0.0-22.0,20,tonic Cs5,2024-06-02 19:23:40,6002660e01f3b1b72159da84d3eceb55,174.82.68.72,"Mozilla/5.0 (Macintosh; Intel Mac OS X 10_15_7) AppleWebKit/537.36 (KHTML, like Gecko) Chrome/125.0.0.0 Safari/537.36",Macintosh,Chrome,125.0.0.0,OS X,10_15_7,https://app.prolific.com/,"en-US,en;q=0.9",dykydm,"<p>The melodies are nearly identical, but have either an added accent or one different note. </p>
    <p><b>Press the space bar to continue.</b></p>",,,,,,,,,
1869, ,html-keyboard-response,97,1500318,0.0-23.0,20,tonic Cs5,2024-06-02 19:23:40,6002660e01f3b1b72159da84d3eceb55,174.82.68.72,"Mozilla/5.0 (Macintosh; Intel Mac OS X 10_15_7) AppleWebKit/537.36 (KHTML, like Gecko) Chrome/125.0.0.0 Safari/537.36",Macintosh,Chrome,125.0.0.0,OS X,10_15_7,https://app.prolific.com/,"en-US,en;q=0.9",dykydm,"<p>    Please choose the melody that <b>sounds better to you.</b></p>
    <p><b>Press the space bar to continue.</b></p>",,,,,,,,,
5662, ,html-keyboard-response,98,1505982,0.0-24.0,20,tonic Cs5,2024-06-02 19:23:40,6002660e01f3b1b72159da84d3eceb55,174.82.68.72,"Mozilla/5.0 (Macintosh; Intel Mac OS X 10_15_7) AppleWebKit/537.36 (KHTML, like Gecko) Chrome/125.0.0.0 Safari/537.36",Macintosh,Chrome,125.0.0.0,OS X,10_15_7,https://app.prolific.com/,"en-US,en;q=0.9",dykydm,There are <b>32 questions</b> in this section.,,,,,,,,,
6618,j,audio-keyboard-response,99,1512677,0.0-25.0-0.0,20,tonic Cs5,2024-06-02 19:23:40,6002660e01f3b1b72159da84d3eceb55,174.82.68.72,"Mozilla/5.0 (Macintosh; Intel Mac OS X 10_15_7) AppleWebKit/537.36 (KHTML, like Gecko) Chrome/125.0.0.0 Safari/537.36",Macintosh,Chrome,125.0.0.0,OS X,10_15_7,https://app.prolific.com/,"en-US,en;q=0.9",dykydm,fc_IC_accent_3_4.mp3,forced_choice,,,,NA,f,false,false,
6420,j,audio-keyboard-response,100,1519173,0.0-25.0-0.1,20,tonic Cs5,2024-06-02 19:23:40,6002660e01f3b1b72159da84d3eceb55,174.82.68.72,"Mozilla/5.0 (Macintosh; Intel Mac OS X 10_15_7) AppleWebKit/537.36 (KHTML, like Gecko) Chrome/125.0.0.0 Safari/537.36",Macintosh,Chrome,125.0.0.0,OS X,10_15_7,https://app.prolific.com/,"en-US,en;q=0.9",dykydm,fc_IC_default_5_1.mp3,forced_choice,,,,NA,j,false,true,
5619,j,audio-keyboard-response,101,1524866,0.0-25.0-0.2,20,tonic Cs5,2024-06-02 19:23:40,6002660e01f3b1b72159da84d3eceb55,174.82.68.72,"Mozilla/5.0 (Macintosh; Intel Mac OS X 10_15_7) AppleWebKit/537.36 (KHTML, like Gecko) Chrome/125.0.0.0 Safari/537.36",Macintosh,Chrome,125.0.0.0,OS X,10_15_7,https://app.prolific.com/,"en-US,en;q=0.9",dykydm,fc_accents_32_4.mp3,forced_choice,,,,j,NA,true,false,
6409,j,audio-keyboard-response,102,1531347,0.0-25.0-0.3,20,tonic Cs5,2024-06-02 19:23:40,6002660e01f3b1b72159da84d3eceb55,174.82.68.72,"Mozilla/5.0 (Macintosh; Intel Mac OS X 10_15_7) AppleWebKit/537.36 (KHTML, like Gecko) Chrome/125.0.0.0 Safari/537.36",Macintosh,Chrome,125.0.0.0,OS X,10_15_7,https://app.prolific.com/,"en-US,en;q=0.9",dykydm,fc_accents_34_1.mp3,forced_choice,,,,j,NA,true,false,
6351,f,audio-keyboard-response,103,1538434,0.0-25.0-0.4,20,tonic Cs5,2024-06-02 19:23:40,6002660e01f3b1b72159da84d3eceb55,174.82.68.72,"Mozilla/5.0 (Macintosh; Intel Mac OS X 10_15_7) AppleWebKit/537.36 (KHTML, like Gecko) Chrome/125.0.0.0 Safari/537.36",Macintosh,Chrome,125.0.0.0,OS X,10_15_7,https://app.prolific.com/,"en-US,en;q=0.9",dykydm,fc_accents_54_2.mp3,forced_choice,,,,j,NA,false,false,
7001,j,audio-keyboard-response,104,1545526,0.0-25.0-0.5,20,tonic Cs5,2024-06-02 19:23:40,6002660e01f3b1b72159da84d3eceb55,174.82.68.72,"Mozilla/5.0 (Macintosh; Intel Mac OS X 10_15_7) AppleWebKit/537.36 (KHTML, like Gecko) Chrome/125.0.0.0 Safari/537.36",Macintosh,Chrome,125.0.0.0,OS X,10_15_7,https://app.prolific.com/,"en-US,en;q=0.9",dykydm,fc_IC_accent_3_2.mp3,forced_choice,,,,NA,f,false,false,
6385,f,audio-keyboard-response,105,1552030,0.0-25.0-0.6,20,tonic Cs5,2024-06-02 19:23:40,6002660e01f3b1b72159da84d3eceb55,174.82.68.72,"Mozilla/5.0 (Macintosh; Intel Mac OS X 10_15_7) AppleWebKit/537.36 (KHTML, like Gecko) Chrome/125.0.0.0 Safari/537.36",Macintosh,Chrome,125.0.0.0,OS X,10_15_7,https://app.prolific.com/,"en-US,en;q=0.9",dykydm,fc_accents_56_2.mp3,forced_choice,,,,j,NA,false,false,
6356,f,audio-keyboard-response,106,1558385,0.0-25.0-0.7,20,tonic Cs5,2024-06-02 19:23:40,6002660e01f3b1b72159da84d3eceb55,174.82.68.72,"Mozilla/5.0 (Macintosh; Intel Mac OS X 10_15_7) AppleWebKit/537.36 (KHTML, like Gecko) Chrome/125.0.0.0 Safari/537.36",Macintosh,Chrome,125.0.0.0,OS X,10_15_7,https://app.prolific.com/,"en-US,en;q=0.9",dykydm,fc_accents_56_4.mp3,forced_choice,,,,j,NA,false,false,
5602,f,audio-keyboard-response,107,1564063,0.0-25.0-0.8,20,tonic Cs5,2024-06-02 19:23:40,6002660e01f3b1b72159da84d3eceb55,174.82.68.72,"Mozilla/5.0 (Macintosh; Intel Mac OS X 10_15_7) AppleWebKit/537.36 (KHTML, like Gecko) Chrome/125.0.0.0 Safari/537.36",Macintosh,Chrome,125.0.0.0,OS X,10_15_7,https://app.prolific.com/,"en-US,en;q=0.9",dykydm,fc_accents_32_3.mp3,forced_choice,,,,j,NA,false,false,
6397,f,audio-keyboard-response,108,1570578,0.0-25.0-0.9,20,tonic Cs5,2024-06-02 19:23:40,6002660e01f3b1b72159da84d3eceb55,174.82.68.72,"Mozilla/5.0 (Macintosh; Intel Mac OS X 10_15_7) AppleWebKit/537.36 (KHTML, like Gecko) Chrome/125.0.0.0 Safari/537.36",Macintosh,Chrome,125.0.0.0,OS X,10_15_7,https://app.prolific.com/,"en-US,en;q=0.9",dykydm,fc_IC_accent_5_1.mp3,forced_choice,,,,NA,j,false,false,
5660,j,audio-keyboard-response,109,1576242,0.0-25.0-0.10,20,tonic Cs5,2024-06-02 19:23:40,6002660e01f3b1b72159da84d3eceb55,174.82.68.72,"Mozilla/5.0 (Macintosh; Intel Mac OS X 10_15_7) AppleWebKit/537.36 (KHTML, like Gecko) Chrome/125.0.0.0 Safari/537.36",Macintosh,Chrome,125.0.0.0,OS X,10_15_7,https://app.prolific.com/,"en-US,en;q=0.9",dykydm,fc_accents_54_4.mp3,forced_choice,,,,j,NA,true,false,
5480,j,audio-keyboard-response,110,1581811,0.0-25.0-0.11,20,tonic Cs5,2024-06-02 19:23:40,6002660e01f3b1b72159da84d3eceb55,174.82.68.72,"Mozilla/5.0 (Macintosh; Intel Mac OS X 10_15_7) AppleWebKit/537.36 (KHTML, like Gecko) Chrome/125.0.0.0 Safari/537.36",Macintosh,Chrome,125.0.0.0,OS X,10_15_7,https://app.prolific.com/,"en-US,en;q=0.9",dykydm,fc_IC_default_3_4.mp3,forced_choice,,,,NA,f,false,false,
5677,j,audio-keyboard-response,111,1587598,0.0-25.0-0.12,20,tonic Cs5,2024-06-02 19:23:40,6002660e01f3b1b72159da84d3eceb55,174.82.68.72,"Mozilla/5.0 (Macintosh; Intel Mac OS X 10_15_7) AppleWebKit/537.36 (KHTML, like Gecko) Chrome/125.0.0.0 Safari/537.36",Macintosh,Chrome,125.0.0.0,OS X,10_15_7,https://app.prolific.com/,"en-US,en;q=0.9",dykydm,fc_IC_accent_5_3.mp3,forced_choice,,,,NA,j,false,true,
5712,j,audio-keyboard-response,112,1593484,0.0-25.0-0.13,20,tonic Cs5,2024-06-02 19:23:40,6002660e01f3b1b72159da84d3eceb55,174.82.68.72,"Mozilla/5.0 (Macintosh; Intel Mac OS X 10_15_7) AppleWebKit/537.36 (KHTML, like Gecko) Chrome/125.0.0.0 Safari/537.36",Macintosh,Chrome,125.0.0.0,OS X,10_15_7,https://app.prolific.com/,"en-US,en;q=0.9",dykydm,fc_IC_accent_3_1.mp3,forced_choice,,,,NA,f,false,false,
5683,f,audio-keyboard-response,113,1599288,0.0-25.0-0.14,20,tonic Cs5,2024-06-02 19:23:40,6002660e01f3b1b72159da84d3eceb55,174.82.68.72,"Mozilla/5.0 (Macintosh; Intel Mac OS X 10_15_7) AppleWebKit/537.36 (KHTML, like Gecko) Chrome/125.0.0.0 Safari/537.36",Macintosh,Chrome,125.0.0.0,OS X,10_15_7,https://app.prolific.com/,"en-US,en;q=0.9",dykydm,fc_IC_accent_5_4.mp3,forced_choice,,,,NA,j,false,false,
5840,f,audio-keyboard-response,114,1605295,0.0-25.0-0.15,20,tonic Cs5,2024-06-02 19:23:40,6002660e01f3b1b72159da84d3eceb55,174.82.68.72,"Mozilla/5.0 (Macintosh; Intel Mac OS X 10_15_7) AppleWebKit/537.36 (KHTML, like Gecko) Chrome/125.0.0.0 Safari/537.36",Macintosh,Chrome,125.0.0.0,OS X,10_15_7,https://app.prolific.com/,"en-US,en;q=0.9",dykydm,fc_accents_54_1.mp3,forced_choice,,,,j,NA,false,false,
6623,j,audio-keyboard-response,115,1612044,0.0-25.0-0.16,20,tonic Cs5,2024-06-02 19:23:40,6002660e01f3b1b72159da84d3eceb55,174.82.68.72,"Mozilla/5.0 (Macintosh; Intel Mac OS X 10_15_7) AppleWebKit/537.36 (KHTML, like Gecko) Chrome/125.0.0.0 Safari/537.36",Macintosh,Chrome,125.0.0.0,OS X,10_15_7,https://app.prolific.com/,"en-US,en;q=0.9",dykydm,fc_IC_default_5_2.mp3,forced_choice,,,,NA,j,false,true,
6444,f,audio-keyboard-response,116,1618606,0.0-25.0-0.17,20,tonic Cs5,2024-06-02 19:23:40,6002660e01f3b1b72159da84d3eceb55,174.82.68.72,"Mozilla/5.0 (Macintosh; Intel Mac OS X 10_15_7) AppleWebKit/537.36 (KHTML, like Gecko) Chrome/125.0.0.0 Safari/537.36",Macintosh,Chrome,125.0.0.0,OS X,10_15_7,https://app.prolific.com/,"en-US,en;q=0.9",dykydm,fc_IC_accent_5_2.mp3,forced_choice,,,,NA,j,false,false,
6571,j,audio-keyboard-response,117,1625258,0.0-25.0-0.18,20,tonic Cs5,2024-06-02 19:23:40,6002660e01f3b1b72159da84d3eceb55,174.82.68.72,"Mozilla/5.0 (Macintosh; Intel Mac OS X 10_15_7) AppleWebKit/537.36 (KHTML, like Gecko) Chrome/125.0.0.0 Safari/537.36",Macintosh,Chrome,125.0.0.0,OS X,10_15_7,https://app.prolific.com/,"en-US,en;q=0.9",dykydm,fc_IC_default_3_1.mp3,forced_choice,,,,NA,f,false,false,
6705,f,audio-keyboard-response,118,1632041,0.0-25.0-0.19,20,tonic Cs5,2024-06-02 19:23:40,6002660e01f3b1b72159da84d3eceb55,174.82.68.72,"Mozilla/5.0 (Macintosh; Intel Mac OS X 10_15_7) AppleWebKit/537.36 (KHTML, like Gecko) Chrome/125.0.0.0 Safari/537.36",Macintosh,Chrome,125.0.0.0,OS X,10_15_7,https://app.prolific.com/,"en-US,en;q=0.9",dykydm,fc_accents_56_1.mp3,forced_choice,,,,j,NA,false,false,
6223,f,audio-keyboard-response,119,1638349,0.0-25.0-0.20,20,tonic Cs5,2024-06-02 19:23:40,6002660e01f3b1b72159da84d3eceb55,174.82.68.72,"Mozilla/5.0 (Macintosh; Intel Mac OS X 10_15_7) AppleWebKit/537.36 (KHTML, like Gecko) Chrome/125.0.0.0 Safari/537.36",Macintosh,Chrome,125.0.0.0,OS X,10_15_7,https://app.prolific.com/,"en-US,en;q=0.9",dykydm,fc_accents_34_2.mp3,forced_choice,,,,j,NA,false,false,
5619,j,audio-keyboard-response,120,1644072,0.0-25.0-0.21,20,tonic Cs5,2024-06-02 19:23:40,6002660e01f3b1b72159da84d3eceb55,174.82.68.72,"Mozilla/5.0 (Macintosh; Intel Mac OS X 10_15_7) AppleWebKit/537.36 (KHTML, like Gecko) Chrome/125.0.0.0 Safari/537.36",Macintosh,Chrome,125.0.0.0,OS X,10_15_7,https://app.prolific.com/,"en-US,en;q=0.9",dykydm,fc_IC_default_3_2.mp3,forced_choice,,,,NA,f,false,false,
6653,f,audio-keyboard-response,121,1650899,0.0-25.0-0.22,20,tonic Cs5,2024-06-02 19:23:40,6002660e01f3b1b72159da84d3eceb55,174.82.68.72,"Mozilla/5.0 (Macintosh; Intel Mac OS X 10_15_7) AppleWebKit/537.36 (KHTML, like Gecko) Chrome/125.0.0.0 Safari/537.36",Macintosh,Chrome,125.0.0.0,OS X,10_15_7,https://app.prolific.com/,"en-US,en;q=0.9",dykydm,fc_accents_34_3.mp3,forced_choice,,,,j,NA,false,false,
6914,f,audio-keyboard-response,122,1657922,0.0-25.0-0.23,20,tonic Cs5,2024-06-02 19:23:40,6002660e01f3b1b72159da84d3eceb55,174.82.68.72,"Mozilla/5.0 (Macintosh; Intel Mac OS X 10_15_7) AppleWebKit/537.36 (KHTML, like Gecko) Chrome/125.0.0.0 Safari/537.36",Macintosh,Chrome,125.0.0.0,OS X,10_15_7,https://app.prolific.com/,"en-US,en;q=0.9",dykydm,fc_accents_54_3.mp3,forced_choice,,,,j,NA,false,false,
7320,j,audio-keyboard-response,123,1665366,0.0-25.0-0.24,20,tonic Cs5,2024-06-02 19:23:40,6002660e01f3b1b72159da84d3eceb55,174.82.68.72,"Mozilla/5.0 (Macintosh; Intel Mac OS X 10_15_7) AppleWebKit/537.36 (KHTML, like Gecko) Chrome/125.0.0.0 Safari/537.36",Macintosh,Chrome,125.0.0.0,OS X,10_15_7,https://app.prolific.com/,"en-US,en;q=0.9",dykydm,fc_IC_default_3_3.mp3,forced_choice,,,,NA,f,false,false,
5904,f,audio-keyboard-response,124,1671372,0.0-25.0-0.25,20,tonic Cs5,2024-06-02 19:23:40,6002660e01f3b1b72159da84d3eceb55,174.82.68.72,"Mozilla/5.0 (Macintosh; Intel Mac OS X 10_15_7) AppleWebKit/537.36 (KHTML, like Gecko) Chrome/125.0.0.0 Safari/537.36",Macintosh,Chrome,125.0.0.0,OS X,10_15_7,https://app.prolific.com/,"en-US,en;q=0.9",dykydm,fc_accents_32_2.mp3,forced_choice,,,,j,NA,false,false,
6589,j,audio-keyboard-response,125,1678044,0.0-25.0-0.26,20,tonic Cs5,2024-06-02 19:23:40,6002660e01f3b1b72159da84d3eceb55,174.82.68.72,"Mozilla/5.0 (Macintosh; Intel Mac OS X 10_15_7) AppleWebKit/537.36 (KHTML, like Gecko) Chrome/125.0.0.0 Safari/537.36",Macintosh,Chrome,125.0.0.0,OS X,10_15_7,https://app.prolific.com/,"en-US,en;q=0.9",dykydm,fc_IC_accent_3_3.mp3,forced_choice,,,,NA,f,false,false,
5608,j,audio-keyboard-response,126,1683753,0.0-25.0-0.27,20,tonic Cs5,2024-06-02 19:23:40,6002660e01f3b1b72159da84d3eceb55,174.82.68.72,"Mozilla/5.0 (Macintosh; Intel Mac OS X 10_15_7) AppleWebKit/537.36 (KHTML, like Gecko) Chrome/125.0.0.0 Safari/537.36",Macintosh,Chrome,125.0.0.0,OS X,10_15_7,https://app.prolific.com/,"en-US,en;q=0.9",dykydm,fc_accents_34_4.mp3,forced_choice,,,,j,NA,true,false,
6745,f,audio-keyboard-response,127,1690502,0.0-25.0-0.28,20,tonic Cs5,2024-06-02 19:23:40,6002660e01f3b1b72159da84d3eceb55,174.82.68.72,"Mozilla/5.0 (Macintosh; Intel Mac OS X 10_15_7) AppleWebKit/537.36 (KHTML, like Gecko) Chrome/125.0.0.0 Safari/537.36",Macintosh,Chrome,125.0.0.0,OS X,10_15_7,https://app.prolific.com/,"en-US,en;q=0.9",dykydm,fc_accents_32_1.mp3,forced_choice,,,,j,NA,false,false,
6444,f,audio-keyboard-response,128,1697024,0.0-25.0-0.29,20,tonic Cs5,2024-06-02 19:23:40,6002660e01f3b1b72159da84d3eceb55,174.82.68.72,"Mozilla/5.0 (Macintosh; Intel Mac OS X 10_15_7) AppleWebKit/537.36 (KHTML, like Gecko) Chrome/125.0.0.0 Safari/537.36",Macintosh,Chrome,125.0.0.0,OS X,10_15_7,https://app.prolific.com/,"en-US,en;q=0.9",dykydm,fc_accents_56_3.mp3,forced_choice,,,,j,NA,false,false,
5834,f,audio-keyboard-response,129,1702933,0.0-25.0-0.30,20,tonic Cs5,2024-06-02 19:23:40,6002660e01f3b1b72159da84d3eceb55,174.82.68.72,"Mozilla/5.0 (Macintosh; Intel Mac OS X 10_15_7) AppleWebKit/537.36 (KHTML, like Gecko) Chrome/125.0.0.0 Safari/537.36",Macintosh,Chrome,125.0.0.0,OS X,10_15_7,https://app.prolific.com/,"en-US,en;q=0.9",dykydm,fc_IC_default_5_4.mp3,forced_choice,,,,NA,j,false,false,
6165,j,audio-keyboard-response,130,1709195,0.0-25.0-0.31,20,tonic Cs5,2024-06-02 19:23:40,6002660e01f3b1b72159da84d3eceb55,174.82.68.72,"Mozilla/5.0 (Macintosh; Intel Mac OS X 10_15_7) AppleWebKit/537.36 (KHTML, like Gecko) Chrome/125.0.0.0 Safari/537.36",Macintosh,Chrome,125.0.0.0,OS X,10_15_7,https://app.prolific.com/,"en-US,en;q=0.9",dykydm,fc_IC_default_5_3.mp3,forced_choice,,,,NA,j,false,true,
4456, ,html-keyboard-response,131,1713652,0.0-26.0,20,tonic Cs5,2024-06-02 19:23:40,6002660e01f3b1b72159da84d3eceb55,174.82.68.72,"Mozilla/5.0 (Macintosh; Intel Mac OS X 10_15_7) AppleWebKit/537.36 (KHTML, like Gecko) Chrome/125.0.0.0 Safari/537.36",Macintosh,Chrome,125.0.0.0,OS X,10_15_7,https://app.prolific.com/,"en-US,en;q=0.9",dykydm,"<p>You have completed all the listening in this experiment. The remaining questions about your background
          will help us better understand your responses. You can skip any question that you do not wish to answer. </p>
          <p> <b> Press the space bar to continue. </b></p>",,,,,,,,,
7654,"{""HeadphoneUse"":""Yes, I used headphones""}",survey-multi-choice,132,1721312,0.0-27.0,20,tonic Cs5,2024-06-02 19:23:40,6002660e01f3b1b72159da84d3eceb55,174.82.68.72,"Mozilla/5.0 (Macintosh; Intel Mac OS X 10_15_7) AppleWebKit/537.36 (KHTML, like Gecko) Chrome/125.0.0.0 Safari/537.36",Macintosh,Chrome,125.0.0.0,OS X,10_15_7,https://app.prolific.com/,"en-US,en;q=0.9",dykydm,,survey,,,,,,,,[0]
15990,"{""age"":""1986"",""country"":""USA"",""language"":""English""}",survey-html-form,133,1737307,0.0-28.0,20,tonic Cs5,2024-06-02 19:23:40,6002660e01f3b1b72159da84d3eceb55,174.82.68.72,"Mozilla/5.0 (Macintosh; Intel Mac OS X 10_15_7) AppleWebKit/537.36 (KHTML, like Gecko) Chrome/125.0.0.0 Safari/537.36",Macintosh,Chrome,125.0.0.0,OS X,10_15_7,https://app.prolific.com/,"en-US,en;q=0.9",dykydm,,survey,,,,,,,,
2288,"{""Gender"":""Male""}",survey-multi-choice,134,1739599,0.0-29.0,20,tonic Cs5,2024-06-02 19:23:40,6002660e01f3b1b72159da84d3eceb55,174.82.68.72,"Mozilla/5.0 (Macintosh; Intel Mac OS X 10_15_7) AppleWebKit/537.36 (KHTML, like Gecko) Chrome/125.0.0.0 Safari/537.36",Macintosh,Chrome,125.0.0.0,OS X,10_15_7,https://app.prolific.com/,"en-US,en;q=0.9",dykydm,,survey,,,,,,,,[0]
8291,"{""Colors"":[""Rock"",""Electronic"",""Metal""]}",survey-multi-select,135,1747898,0.0-30.0,20,tonic Cs5,2024-06-02 19:23:40,6002660e01f3b1b72159da84d3eceb55,174.82.68.72,"Mozilla/5.0 (Macintosh; Intel Mac OS X 10_15_7) AppleWebKit/537.36 (KHTML, like Gecko) Chrome/125.0.0.0 Safari/537.36",Macintosh,Chrome,125.0.0.0,OS X,10_15_7,https://app.prolific.com/,"en-US,en;q=0.9",dykydm,,,,,,,,,,[0]
11063,"{""HearingImpairment"":""No"",""PerfectPitch"":""No"",""Singing"":""Yes""}",survey-multi-choice,136,1758966,0.0-31.0,20,tonic Cs5,2024-06-02 19:23:40,6002660e01f3b1b72159da84d3eceb55,174.82.68.72,"Mozilla/5.0 (Macintosh; Intel Mac OS X 10_15_7) AppleWebKit/537.36 (KHTML, like Gecko) Chrome/125.0.0.0 Safari/537.36",Macintosh,Chrome,125.0.0.0,OS X,10_15_7,https://app.prolific.com/,"en-US,en;q=0.9",dykydm,,survey,,,,,,,,"[0,1,2]"
24053,"{""PracticeHours"":""30 minutes-1 hour"",""TrainingYears"":""Less than 1 year"",""TrainingType"":""I taught myself"",""Expertise"":""Intermediate"",""NonWesternTraining"":""No""}",survey-multi-choice,137,1783024,0.0-32.0,20,tonic Cs5,2024-06-02 19:23:40,6002660e01f3b1b72159da84d3eceb55,174.82.68.72,"Mozilla/5.0 (Macintosh; Intel Mac OS X 10_15_7) AppleWebKit/537.36 (KHTML, like Gecko) Chrome/125.0.0.0 Safari/537.36",Macintosh,Chrome,125.0.0.0,OS X,10_15_7,https://app.prolific.com/,"en-US,en;q=0.9",dykydm,,survey,,,,,,,,"[0,1,2,3,4]"
9617,"{""TrainingStart"":""10-15""}",survey-multi-choice,138,1792646,0.0-33.0,20,tonic Cs5,2024-06-02 19:23:40,6002660e01f3b1b72159da84d3eceb55,174.82.68.72,"Mozilla/5.0 (Macintosh; Intel Mac OS X 10_15_7) AppleWebKit/537.36 (KHTML, like Gecko) Chrome/125.0.0.0 Safari/537.36",Macintosh,Chrome,125.0.0.0,OS X,10_15_7,https://app.prolific.com/,"en-US,en;q=0.9",dykydm,,survey,,,,,,,,[0]
21037,0,html-button-response,139,1813688,0.0-34.0,20,tonic Cs5,2024-06-02 19:23:40,6002660e01f3b1b72159da84d3eceb55,174.82.68.72,"Mozilla/5.0 (Macintosh; Intel Mac OS X 10_15_7) AppleWebKit/537.36 (KHTML, like Gecko) Chrome/125.0.0.0 Safari/537.36",Macintosh,Chrome,125.0.0.0,OS X,10_15_7,https://app.prolific.com/,"en-US,en;q=0.9",dykydm,"You have reached the end of the experiment. Your completion code is <b>C1AWH3EX</b>.
    <p>For questions or concerns, please write to <b>haiqin.zhang@ens.psl.eu.</b></p>
    Thank you for your participation!
  ",,,,,,,,,
5793,"{""prolific_id"":""6659ccc3f36826e67d30e439""}",survey-html-form,0,5798,0.0-0.0,10,tonic Cs5,2024-06-02 10:38:23,6002660e01f3b1b72159da84d3eceb55,86.28.107.21,"Mozilla/5.0 (Windows NT 10.0; Win64; x64) AppleWebKit/537.36 (KHTML, like Gecko) Chrome/125.0.0.0 Safari/537.36",WebKit,Chrome,125.0.0.0,Windows,10.0,https://app.prolific.com/,"en-GB,en-US;q=0.9,en;q=0.8",vxh5qr,,,,,,,,,,
9020, ,html-keyboard-response,1,14825,0.0-1.0,10,tonic Cs5,2024-06-02 10:38:23,6002660e01f3b1b72159da84d3eceb55,86.28.107.21,"Mozilla/5.0 (Windows NT 10.0; Win64; x64) AppleWebKit/537.36 (KHTML, like Gecko) Chrome/125.0.0.0 Safari/537.36",WebKit,Chrome,125.0.0.0,Windows,10.0,https://app.prolific.com/,"en-GB,en-US;q=0.9,en;q=0.8",vxh5qr,"
    <p>Please complete the experiment in a quiet place.
      We highly recommend using headphones.</p>

    </p align = 'justify'> <b>Press the space bar to proceed.</b> </p>",,,,,,,,,
2201, ,html-keyboard-response,2,17029,0.0-2.0,10,tonic Cs5,2024-06-02 10:38:23,6002660e01f3b1b72159da84d3eceb55,86.28.107.21,"Mozilla/5.0 (Windows NT 10.0; Win64; x64) AppleWebKit/537.36 (KHTML, like Gecko) Chrome/125.0.0.0 Safari/537.36",WebKit,Chrome,125.0.0.0,Windows,10.0,https://app.prolific.com/,"en-GB,en-US;q=0.9,en;q=0.8",vxh5qr,"
    <p>A series of soundchecks will now be played to help you adjust the volume
      to a comfortable level. </p>

    </p align = 'justify'> <b>Press the space bar to proceed.</b> </p>",,,,,,,,,
7400,1,audio-button-response,3,25053,0.0-3.0-0.0,10,tonic Cs5,2024-06-02 10:38:23,6002660e01f3b1b72159da84d3eceb55,86.28.107.21,"Mozilla/5.0 (Windows NT 10.0; Win64; x64) AppleWebKit/537.36 (KHTML, like Gecko) Chrome/125.0.0.0 Safari/537.36",WebKit,Chrome,125.0.0.0,Windows,10.0,https://app.prolific.com/,"en-GB,en-US;q=0.9,en;q=0.8",vxh5qr,grammatical_1.mp3,,,,,,,,,
8705, ,html-keyboard-response,4,33761,0.0-4.0,10,tonic Cs5,2024-06-02 10:38:23,6002660e01f3b1b72159da84d3eceb55,86.28.107.21,"Mozilla/5.0 (Windows NT 10.0; Win64; x64) AppleWebKit/537.36 (KHTML, like Gecko) Chrome/125.0.0.0 Safari/537.36",WebKit,Chrome,125.0.0.0,Windows,10.0,https://app.prolific.com/,"en-GB,en-US;q=0.9,en;q=0.8",vxh5qr,"<p width = 300 px>
    You will now hear two melodies in succession. 
    The notes in each melody are the same, but there is an accent on one note for one of the melodies. 
    <b>Listen for which melody has the accent.</b>
    </p>
    
    Press the space bar to continue.",,,,,,,,,
3152, ,html-keyboard-response,5,36916,0.0-5.0,10,tonic Cs5,2024-06-02 10:38:23,6002660e01f3b1b72159da84d3eceb55,86.28.107.21,"Mozilla/5.0 (Windows NT 10.0; Win64; x64) AppleWebKit/537.36 (KHTML, like Gecko) Chrome/125.0.0.0 Safari/537.36",WebKit,Chrome,125.0.0.0,Windows,10.0,https://app.prolific.com/,"en-GB,en-US;q=0.9,en;q=0.8",vxh5qr,"<p width = 300 px>
    <b>You must score at least 2/3 to proceed with the experiment.</b>
    </p>
    
    Press the space bar to continue.",,,,,,,,,
9371,1,audio-button-response,6,46458,0.0-6.0,10,tonic Cs5,2024-06-02 10:38:23,6002660e01f3b1b72159da84d3eceb55,86.28.107.21,"Mozilla/5.0 (Windows NT 10.0; Win64; x64) AppleWebKit/537.36 (KHTML, like Gecko) Chrome/125.0.0.0 Safari/537.36",WebKit,Chrome,125.0.0.0,Windows,10.0,https://app.prolific.com/,"en-GB,en-US;q=0.9,en;q=0.8",vxh5qr,fc_accents_32_1.mp3,soundcheck,true,,,,,,,
1326, ,html-keyboard-response,7,47787,0.0-7.0,10,tonic Cs5,2024-06-02 10:38:23,6002660e01f3b1b72159da84d3eceb55,86.28.107.21,"Mozilla/5.0 (Windows NT 10.0; Win64; x64) AppleWebKit/537.36 (KHTML, like Gecko) Chrome/125.0.0.0 Safari/537.36",WebKit,Chrome,125.0.0.0,Windows,10.0,https://app.prolific.com/,"en-GB,en-US;q=0.9,en;q=0.8",vxh5qr,<p>Correct!</p> Press the space bar to continue.,,,,,,,,,
7739,1,audio-button-response,8,55679,0.0-8.0,10,tonic Cs5,2024-06-02 10:38:23,6002660e01f3b1b72159da84d3eceb55,86.28.107.21,"Mozilla/5.0 (Windows NT 10.0; Win64; x64) AppleWebKit/537.36 (KHTML, like Gecko) Chrome/125.0.0.0 Safari/537.36",WebKit,Chrome,125.0.0.0,Windows,10.0,https://app.prolific.com/,"en-GB,en-US;q=0.9,en;q=0.8",vxh5qr,fc_accents_56_4.mp3,soundcheck,true,,,,,,,
1031, ,html-keyboard-response,9,56714,0.0-9.0,10,tonic Cs5,2024-06-02 10:38:23,6002660e01f3b1b72159da84d3eceb55,86.28.107.21,"Mozilla/5.0 (Windows NT 10.0; Win64; x64) AppleWebKit/537.36 (KHTML, like Gecko) Chrome/125.0.0.0 Safari/537.36",WebKit,Chrome,125.0.0.0,Windows,10.0,https://app.prolific.com/,"en-GB,en-US;q=0.9,en;q=0.8",vxh5qr,<p>Correct!</p> Press the space bar to continue.,,,,,,,,,
9091,1,audio-button-response,10,65949,0.0-10.0,10,tonic Cs5,2024-06-02 10:38:23,6002660e01f3b1b72159da84d3eceb55,86.28.107.21,"Mozilla/5.0 (Windows NT 10.0; Win64; x64) AppleWebKit/537.36 (KHTML, like Gecko) Chrome/125.0.0.0 Safari/537.36",WebKit,Chrome,125.0.0.0,Windows,10.0,https://app.prolific.com/,"en-GB,en-US;q=0.9,en;q=0.8",vxh5qr,fc_accents_54_4.mp3,soundcheck,true,,,,,,,
901, ,html-keyboard-response,11,66852,0.0-11.0,10,tonic Cs5,2024-06-02 10:38:23,6002660e01f3b1b72159da84d3eceb55,86.28.107.21,"Mozilla/5.0 (Windows NT 10.0; Win64; x64) AppleWebKit/537.36 (KHTML, like Gecko) Chrome/125.0.0.0 Safari/537.36",WebKit,Chrome,125.0.0.0,Windows,10.0,https://app.prolific.com/,"en-GB,en-US;q=0.9,en;q=0.8",vxh5qr,<p>Correct!</p> Press the space bar to continue.,,,,,,,,,
3992, ,html-keyboard-response,12,70848,0.0-12.0,10,tonic Cs5,2024-06-02 10:38:23,6002660e01f3b1b72159da84d3eceb55,86.28.107.21,"Mozilla/5.0 (Windows NT 10.0; Win64; x64) AppleWebKit/537.36 (KHTML, like Gecko) Chrome/125.0.0.0 Safari/537.36",WebKit,Chrome,125.0.0.0,Windows,10.0,https://app.prolific.com/,"en-GB,en-US;q=0.9,en;q=0.8",vxh5qr,"If you got <b>less than 2/3</b> of the previous soundcheck questions correct, <b>we unfortunately cannot use your data or pay you</b>. Please exit the experiment now.
    
    <p>If you got <b>more than 2/3</b> correct, press the space bar to continue</p>.",,,,,,,,,
4955, ,html-keyboard-response,13,75806,0.0-13.0,10,tonic Cs5,2024-06-02 10:38:23,6002660e01f3b1b72159da84d3eceb55,86.28.107.21,"Mozilla/5.0 (Windows NT 10.0; Win64; x64) AppleWebKit/537.36 (KHTML, like Gecko) Chrome/125.0.0.0 Safari/537.36",WebKit,Chrome,125.0.0.0,Windows,10.0,https://app.prolific.com/,"en-GB,en-US;q=0.9,en;q=0.8",vxh5qr,"<p>Please listen carefully to the following set of melodies. 
      You will occassionally be asked some basic questions about some of the melodies to check your attention level. </p>
    <p><b>Press the space bar to continue.</b></p>",,,,,,,,,
3039, ,html-keyboard-response,14,78849,0.0-14.0,10,tonic Cs5,2024-06-02 10:38:23,6002660e01f3b1b72159da84d3eceb55,86.28.107.21,"Mozilla/5.0 (Windows NT 10.0; Win64; x64) AppleWebKit/537.36 (KHTML, like Gecko) Chrome/125.0.0.0 Safari/537.36",WebKit,Chrome,125.0.0.0,Windows,10.0,https://app.prolific.com/,"en-GB,en-US;q=0.9,en;q=0.8",vxh5qr,"<p>The attention questions vary in difficulty, but you must get at least some questions correct for us to pay you.</p>
    <p><b>Press the space bar to continue.</b></p>",,,,,,,,,
4336, ,html-keyboard-response,15,83189,0.0-15.0,10,tonic Cs5,2024-06-02 10:38:23,6002660e01f3b1b72159da84d3eceb55,86.28.107.21,"Mozilla/5.0 (Windows NT 10.0; Win64; x64) AppleWebKit/537.36 (KHTML, like Gecko) Chrome/125.0.0.0 Safari/537.36",WebKit,Chrome,125.0.0.0,Windows,10.0,https://app.prolific.com/,"en-GB,en-US;q=0.9,en;q=0.8",vxh5qr,"
    This part of the experiment should take <b>15-20 minutes</b>. 
    <p><b>Press the space bar to begin.</b></p>",,,,,,,,,
null,null,audio-keyboard-response,16,106578,0.0-16.0-0.0,10,tonic Cs5,2024-06-02 10:38:23,6002660e01f3b1b72159da84d3eceb55,86.28.107.21,"Mozilla/5.0 (Windows NT 10.0; Win64; x64) AppleWebKit/537.36 (KHTML, like Gecko) Chrome/125.0.0.0 Safari/537.36",WebKit,Chrome,125.0.0.0,Windows,10.0,https://app.prolific.com/,"en-GB,en-US;q=0.9,en;q=0.8",vxh5qr,"[""exposure_4s_38.mp3""]",exposure,,exp_noresponse,,,,,,
null,null,audio-keyboard-response,17,130153,0.0-16.0-1.0,10,tonic Cs5,2024-06-02 10:38:23,6002660e01f3b1b72159da84d3eceb55,86.28.107.21,"Mozilla/5.0 (Windows NT 10.0; Win64; x64) AppleWebKit/537.36 (KHTML, like Gecko) Chrome/125.0.0.0 Safari/537.36",WebKit,Chrome,125.0.0.0,Windows,10.0,https://app.prolific.com/,"en-GB,en-US;q=0.9,en;q=0.8",vxh5qr,"[""exposure_4s_34.mp3""]",exposure,,exp_noresponse,,,,,,
12251,1,audio-button-response,18,142663,0.0-16.0-2.0,10,tonic Cs5,2024-06-02 10:38:23,6002660e01f3b1b72159da84d3eceb55,86.28.107.21,"Mozilla/5.0 (Windows NT 10.0; Win64; x64) AppleWebKit/537.36 (KHTML, like Gecko) Chrome/125.0.0.0 Safari/537.36",WebKit,Chrome,125.0.0.0,Windows,10.0,https://app.prolific.com/,"en-GB,en-US;q=0.9,en;q=0.8",vxh5qr,attn_length_hard_1.mp3,exposure,true,attncheck,,,,,,
null,null,audio-keyboard-response,19,166038,0.0-16.0-3.0,10,tonic Cs5,2024-06-02 10:38:23,6002660e01f3b1b72159da84d3eceb55,86.28.107.21,"Mozilla/5.0 (Windows NT 10.0; Win64; x64) AppleWebKit/537.36 (KHTML, like Gecko) Chrome/125.0.0.0 Safari/537.36",WebKit,Chrome,125.0.0.0,Windows,10.0,https://app.prolific.com/,"en-GB,en-US;q=0.9,en;q=0.8",vxh5qr,"[""exposure_4s_23.mp3""]",exposure,,exp_noresponse,,,,,,
null,null,audio-keyboard-response,20,189496,0.0-16.0-4.0,10,tonic Cs5,2024-06-02 10:38:23,6002660e01f3b1b72159da84d3eceb55,86.28.107.21,"Mozilla/5.0 (Windows NT 10.0; Win64; x64) AppleWebKit/537.36 (KHTML, like Gecko) Chrome/125.0.0.0 Safari/537.36",WebKit,Chrome,125.0.0.0,Windows,10.0,https://app.prolific.com/,"en-GB,en-US;q=0.9,en;q=0.8",vxh5qr,"[""exposure_4s_7.mp3""]",exposure,,exp_noresponse,,,,,,
null,null,audio-keyboard-response,21,212932,0.0-16.0-5.0,10,tonic Cs5,2024-06-02 10:38:23,6002660e01f3b1b72159da84d3eceb55,86.28.107.21,"Mozilla/5.0 (Windows NT 10.0; Win64; x64) AppleWebKit/537.36 (KHTML, like Gecko) Chrome/125.0.0.0 Safari/537.36",WebKit,Chrome,125.0.0.0,Windows,10.0,https://app.prolific.com/,"en-GB,en-US;q=0.9,en;q=0.8",vxh5qr,"[""exposure_4s_39.mp3""]",exposure,,exp_noresponse,,,,,,
null,null,audio-keyboard-response,22,236503,0.0-16.0-6.0,10,tonic Cs5,2024-06-02 10:38:23,6002660e01f3b1b72159da84d3eceb55,86.28.107.21,"Mozilla/5.0 (Windows NT 10.0; Win64; x64) AppleWebKit/537.36 (KHTML, like Gecko) Chrome/125.0.0.0 Safari/537.36",WebKit,Chrome,125.0.0.0,Windows,10.0,https://app.prolific.com/,"en-GB,en-US;q=0.9,en;q=0.8",vxh5qr,"[""exposure_4s_43.mp3""]",exposure,,exp_noresponse,,,,,,
null,null,audio-keyboard-response,23,260010,0.0-16.0-7.0,10,tonic Cs5,2024-06-02 10:38:23,6002660e01f3b1b72159da84d3eceb55,86.28.107.21,"Mozilla/5.0 (Windows NT 10.0; Win64; x64) AppleWebKit/537.36 (KHTML, like Gecko) Chrome/125.0.0.0 Safari/537.36",WebKit,Chrome,125.0.0.0,Windows,10.0,https://app.prolific.com/,"en-GB,en-US;q=0.9,en;q=0.8",vxh5qr,"[""exposure_4s_29.mp3""]",exposure,,exp_noresponse,,,,,,
null,null,audio-keyboard-response,24,283620,0.0-16.0-8.0,10,tonic Cs5,2024-06-02 10:38:23,6002660e01f3b1b72159da84d3eceb55,86.28.107.21,"Mozilla/5.0 (Windows NT 10.0; Win64; x64) AppleWebKit/537.36 (KHTML, like Gecko) Chrome/125.0.0.0 Safari/537.36",WebKit,Chrome,125.0.0.0,Windows,10.0,https://app.prolific.com/,"en-GB,en-US;q=0.9,en;q=0.8",vxh5qr,"[""exposure_4s_30.mp3""]",exposure,,exp_noresponse,,,,,,
null,null,audio-keyboard-response,25,306994,0.0-16.0-9.0,10,tonic Cs5,2024-06-02 10:38:23,6002660e01f3b1b72159da84d3eceb55,86.28.107.21,"Mozilla/5.0 (Windows NT 10.0; Win64; x64) AppleWebKit/537.36 (KHTML, like Gecko) Chrome/125.0.0.0 Safari/537.36",WebKit,Chrome,125.0.0.0,Windows,10.0,https://app.prolific.com/,"en-GB,en-US;q=0.9,en;q=0.8",vxh5qr,"[""exposure_4s_4.mp3""]",exposure,,exp_noresponse,,,,,,
null,null,audio-keyboard-response,26,330470,0.0-16.0-10.0,10,tonic Cs5,2024-06-02 10:38:23,6002660e01f3b1b72159da84d3eceb55,86.28.107.21,"Mozilla/5.0 (Windows NT 10.0; Win64; x64) AppleWebKit/537.36 (KHTML, like Gecko) Chrome/125.0.0.0 Safari/537.36",WebKit,Chrome,125.0.0.0,Windows,10.0,https://app.prolific.com/,"en-GB,en-US;q=0.9,en;q=0.8",vxh5qr,"[""exposure_4s_21.mp3""]",exposure,,exp_noresponse,,,,,,
8699,1,audio-button-response,27,339359,0.0-16.0-11.0,10,tonic Cs5,2024-06-02 10:38:23,6002660e01f3b1b72159da84d3eceb55,86.28.107.21,"Mozilla/5.0 (Windows NT 10.0; Win64; x64) AppleWebKit/537.36 (KHTML, like Gecko) Chrome/125.0.0.0 Safari/537.36",WebKit,Chrome,125.0.0.0,Windows,10.0,https://app.prolific.com/,"en-GB,en-US;q=0.9,en;q=0.8",vxh5qr,attn_length_easy_1.mp3,exposure,true,attncheck,,,,,,
null,null,audio-keyboard-response,28,362760,0.0-16.0-12.0,10,tonic Cs5,2024-06-02 10:38:23,6002660e01f3b1b72159da84d3eceb55,86.28.107.21,"Mozilla/5.0 (Windows NT 10.0; Win64; x64) AppleWebKit/537.36 (KHTML, like Gecko) Chrome/125.0.0.0 Safari/537.36",WebKit,Chrome,125.0.0.0,Windows,10.0,https://app.prolific.com/,"en-GB,en-US;q=0.9,en;q=0.8",vxh5qr,"[""exposure_4s_41.mp3""]",exposure,,exp_noresponse,,,,,,
null,null,audio-keyboard-response,29,386163,0.0-16.0-13.0,10,tonic Cs5,2024-06-02 10:38:23,6002660e01f3b1b72159da84d3eceb55,86.28.107.21,"Mozilla/5.0 (Windows NT 10.0; Win64; x64) AppleWebKit/537.36 (KHTML, like Gecko) Chrome/125.0.0.0 Safari/537.36",WebKit,Chrome,125.0.0.0,Windows,10.0,https://app.prolific.com/,"en-GB,en-US;q=0.9,en;q=0.8",vxh5qr,"[""exposure_4s_31.mp3""]",exposure,,exp_noresponse,,,,,,
null,null,audio-keyboard-response,30,409570,0.0-16.0-14.0,10,tonic Cs5,2024-06-02 10:38:23,6002660e01f3b1b72159da84d3eceb55,86.28.107.21,"Mozilla/5.0 (Windows NT 10.0; Win64; x64) AppleWebKit/537.36 (KHTML, like Gecko) Chrome/125.0.0.0 Safari/537.36",WebKit,Chrome,125.0.0.0,Windows,10.0,https://app.prolific.com/,"en-GB,en-US;q=0.9,en;q=0.8",vxh5qr,"[""exposure_4s_35.mp3""]",exposure,,exp_noresponse,,,,,,
8741,1,audio-button-response,31,418312,0.0-16.0-15.0,10,tonic Cs5,2024-06-02 10:38:23,6002660e01f3b1b72159da84d3eceb55,86.28.107.21,"Mozilla/5.0 (Windows NT 10.0; Win64; x64) AppleWebKit/537.36 (KHTML, like Gecko) Chrome/125.0.0.0 Safari/537.36",WebKit,Chrome,125.0.0.0,Windows,10.0,https://app.prolific.com/,"en-GB,en-US;q=0.9,en;q=0.8",vxh5qr,attn_length_easy_1.mp3,exposure,true,attncheck,,,,,,
null,null,audio-keyboard-response,32,441706,0.0-16.0-16.0,10,tonic Cs5,2024-06-02 10:38:23,6002660e01f3b1b72159da84d3eceb55,86.28.107.21,"Mozilla/5.0 (Windows NT 10.0; Win64; x64) AppleWebKit/537.36 (KHTML, like Gecko) Chrome/125.0.0.0 Safari/537.36",WebKit,Chrome,125.0.0.0,Windows,10.0,https://app.prolific.com/,"en-GB,en-US;q=0.9,en;q=0.8",vxh5qr,"[""exposure_4s_24.mp3""]",exposure,,exp_noresponse,,,,,,
null,null,audio-keyboard-response,33,465129,0.0-16.0-17.0,10,tonic Cs5,2024-06-02 10:38:23,6002660e01f3b1b72159da84d3eceb55,86.28.107.21,"Mozilla/5.0 (Windows NT 10.0; Win64; x64) AppleWebKit/537.36 (KHTML, like Gecko) Chrome/125.0.0.0 Safari/537.36",WebKit,Chrome,125.0.0.0,Windows,10.0,https://app.prolific.com/,"en-GB,en-US;q=0.9,en;q=0.8",vxh5qr,"[""exposure_4s_19.mp3""]",exposure,,exp_noresponse,,,,,,
null,null,audio-keyboard-response,34,488535,0.0-16.0-18.0,10,tonic Cs5,2024-06-02 10:38:23,6002660e01f3b1b72159da84d3eceb55,86.28.107.21,"Mozilla/5.0 (Windows NT 10.0; Win64; x64) AppleWebKit/537.36 (KHTML, like Gecko) Chrome/125.0.0.0 Safari/537.36",WebKit,Chrome,125.0.0.0,Windows,10.0,https://app.prolific.com/,"en-GB,en-US;q=0.9,en;q=0.8",vxh5qr,"[""exposure_4s_32.mp3""]",exposure,,exp_noresponse,,,,,,
null,null,audio-keyboard-response,35,511544,0.0-16.0-19.0,10,tonic Cs5,2024-06-02 10:38:23,6002660e01f3b1b72159da84d3eceb55,86.28.107.21,"Mozilla/5.0 (Windows NT 10.0; Win64; x64) AppleWebKit/537.36 (KHTML, like Gecko) Chrome/125.0.0.0 Safari/537.36",WebKit,Chrome,125.0.0.0,Windows,10.0,https://app.prolific.com/,"en-GB,en-US;q=0.9,en;q=0.8",vxh5qr,"[""exposure_4s_30.mp3""]",exposure,,exp_noresponse,,,,,,
null,null,audio-keyboard-response,36,535085,0.0-16.0-20.0,10,tonic Cs5,2024-06-02 10:38:23,6002660e01f3b1b72159da84d3eceb55,86.28.107.21,"Mozilla/5.0 (Windows NT 10.0; Win64; x64) AppleWebKit/537.36 (KHTML, like Gecko) Chrome/125.0.0.0 Safari/537.36",WebKit,Chrome,125.0.0.0,Windows,10.0,https://app.prolific.com/,"en-GB,en-US;q=0.9,en;q=0.8",vxh5qr,"[""exposure_4s_17.mp3""]",exposure,,exp_noresponse,,,,,,
null,null,audio-keyboard-response,37,558633,0.0-16.0-21.0,10,tonic Cs5,2024-06-02 10:38:23,6002660e01f3b1b72159da84d3eceb55,86.28.107.21,"Mozilla/5.0 (Windows NT 10.0; Win64; x64) AppleWebKit/537.36 (KHTML, like Gecko) Chrome/125.0.0.0 Safari/537.36",WebKit,Chrome,125.0.0.0,Windows,10.0,https://app.prolific.com/,"en-GB,en-US;q=0.9,en;q=0.8",vxh5qr,"[""exposure_4s_12.mp3""]",exposure,,exp_noresponse,,,,,,
null,null,audio-keyboard-response,38,582088,0.0-16.0-22.0,10,tonic Cs5,2024-06-02 10:38:23,6002660e01f3b1b72159da84d3eceb55,86.28.107.21,"Mozilla/5.0 (Windows NT 10.0; Win64; x64) AppleWebKit/537.36 (KHTML, like Gecko) Chrome/125.0.0.0 Safari/537.36",WebKit,Chrome,125.0.0.0,Windows,10.0,https://app.prolific.com/,"en-GB,en-US;q=0.9,en;q=0.8",vxh5qr,"[""exposure_4s_33.mp3""]",exposure,,exp_noresponse,,,,,,
null,null,audio-keyboard-response,39,605105,0.0-16.0-23.0,10,tonic Cs5,2024-06-02 10:38:23,6002660e01f3b1b72159da84d3eceb55,86.28.107.21,"Mozilla/5.0 (Windows NT 10.0; Win64; x64) AppleWebKit/537.36 (KHTML, like Gecko) Chrome/125.0.0.0 Safari/537.36",WebKit,Chrome,125.0.0.0,Windows,10.0,https://app.prolific.com/,"en-GB,en-US;q=0.9,en;q=0.8",vxh5qr,"[""exposure_4s_24.mp3""]",exposure,,exp_noresponse,,,,,,
null,null,audio-keyboard-response,40,628545,0.0-16.0-24.0,10,tonic Cs5,2024-06-02 10:38:23,6002660e01f3b1b72159da84d3eceb55,86.28.107.21,"Mozilla/5.0 (Windows NT 10.0; Win64; x64) AppleWebKit/537.36 (KHTML, like Gecko) Chrome/125.0.0.0 Safari/537.36",WebKit,Chrome,125.0.0.0,Windows,10.0,https://app.prolific.com/,"en-GB,en-US;q=0.9,en;q=0.8",vxh5qr,"[""exposure_4s_42.mp3""]",exposure,,exp_noresponse,,,,,,
8480,1,audio-button-response,41,637027,0.0-16.0-25.0,10,tonic Cs5,2024-06-02 10:38:23,6002660e01f3b1b72159da84d3eceb55,86.28.107.21,"Mozilla/5.0 (Windows NT 10.0; Win64; x64) AppleWebKit/537.36 (KHTML, like Gecko) Chrome/125.0.0.0 Safari/537.36",WebKit,Chrome,125.0.0.0,Windows,10.0,https://app.prolific.com/,"en-GB,en-US;q=0.9,en;q=0.8",vxh5qr,attn_length_easy_1.mp3,exposure,true,attncheck,,,,,,
5600,1,audio-button-response,42,642634,0.0-16.0-26.0,10,tonic Cs5,2024-06-02 10:38:23,6002660e01f3b1b72159da84d3eceb55,86.28.107.21,"Mozilla/5.0 (Windows NT 10.0; Win64; x64) AppleWebKit/537.36 (KHTML, like Gecko) Chrome/125.0.0.0 Safari/537.36",WebKit,Chrome,125.0.0.0,Windows,10.0,https://app.prolific.com/,"en-GB,en-US;q=0.9,en;q=0.8",vxh5qr,attn_length_easy_1.mp3,exposure,true,attncheck,,,,,,
null,null,audio-keyboard-response,43,665641,0.0-16.0-27.0,10,tonic Cs5,2024-06-02 10:38:23,6002660e01f3b1b72159da84d3eceb55,86.28.107.21,"Mozilla/5.0 (Windows NT 10.0; Win64; x64) AppleWebKit/537.36 (KHTML, like Gecko) Chrome/125.0.0.0 Safari/537.36",WebKit,Chrome,125.0.0.0,Windows,10.0,https://app.prolific.com/,"en-GB,en-US;q=0.9,en;q=0.8",vxh5qr,"[""exposure_4s_7.mp3""]",exposure,,exp_noresponse,,,,,,
null,null,audio-keyboard-response,44,688644,0.0-16.0-28.0,10,tonic Cs5,2024-06-02 10:38:23,6002660e01f3b1b72159da84d3eceb55,86.28.107.21,"Mozilla/5.0 (Windows NT 10.0; Win64; x64) AppleWebKit/537.36 (KHTML, like Gecko) Chrome/125.0.0.0 Safari/537.36",WebKit,Chrome,125.0.0.0,Windows,10.0,https://app.prolific.com/,"en-GB,en-US;q=0.9,en;q=0.8",vxh5qr,"[""exposure_4s_41.mp3""]",exposure,,exp_noresponse,,,,,,
8331,1,audio-button-response,45,696978,0.0-16.0-29.0,10,tonic Cs5,2024-06-02 10:38:23,6002660e01f3b1b72159da84d3eceb55,86.28.107.21,"Mozilla/5.0 (Windows NT 10.0; Win64; x64) AppleWebKit/537.36 (KHTML, like Gecko) Chrome/125.0.0.0 Safari/537.36",WebKit,Chrome,125.0.0.0,Windows,10.0,https://app.prolific.com/,"en-GB,en-US;q=0.9,en;q=0.8",vxh5qr,attn_length_easy_1.mp3,exposure,true,attncheck,,,,,,
null,null,audio-keyboard-response,46,720555,0.0-16.0-30.0,10,tonic Cs5,2024-06-02 10:38:23,6002660e01f3b1b72159da84d3eceb55,86.28.107.21,"Mozilla/5.0 (Windows NT 10.0; Win64; x64) AppleWebKit/537.36 (KHTML, like Gecko) Chrome/125.0.0.0 Safari/537.36",WebKit,Chrome,125.0.0.0,Windows,10.0,https://app.prolific.com/,"en-GB,en-US;q=0.9,en;q=0.8",vxh5qr,"[""exposure_4s_1.mp3""]",exposure,,exp_noresponse,,,,,,
null,null,audio-keyboard-response,47,743958,0.0-16.0-31.0,10,tonic Cs5,2024-06-02 10:38:23,6002660e01f3b1b72159da84d3eceb55,86.28.107.21,"Mozilla/5.0 (Windows NT 10.0; Win64; x64) AppleWebKit/537.36 (KHTML, like Gecko) Chrome/125.0.0.0 Safari/537.36",WebKit,Chrome,125.0.0.0,Windows,10.0,https://app.prolific.com/,"en-GB,en-US;q=0.9,en;q=0.8",vxh5qr,"[""exposure_4s_44.mp3""]",exposure,,exp_noresponse,,,,,,
null,null,audio-keyboard-response,48,767351,0.0-16.0-32.0,10,tonic Cs5,2024-06-02 10:38:23,6002660e01f3b1b72159da84d3eceb55,86.28.107.21,"Mozilla/5.0 (Windows NT 10.0; Win64; x64) AppleWebKit/537.36 (KHTML, like Gecko) Chrome/125.0.0.0 Safari/537.36",WebKit,Chrome,125.0.0.0,Windows,10.0,https://app.prolific.com/,"en-GB,en-US;q=0.9,en;q=0.8",vxh5qr,"[""exposure_4s_9.mp3""]",exposure,,exp_noresponse,,,,,,
null,null,audio-keyboard-response,49,790368,0.0-16.0-33.0,10,tonic Cs5,2024-06-02 10:38:23,6002660e01f3b1b72159da84d3eceb55,86.28.107.21,"Mozilla/5.0 (Windows NT 10.0; Win64; x64) AppleWebKit/537.36 (KHTML, like Gecko) Chrome/125.0.0.0 Safari/537.36",WebKit,Chrome,125.0.0.0,Windows,10.0,https://app.prolific.com/,"en-GB,en-US;q=0.9,en;q=0.8",vxh5qr,"[""exposure_4s_41.mp3""]",exposure,,exp_noresponse,,,,,,
null,null,audio-keyboard-response,50,813756,0.0-16.0-34.0,10,tonic Cs5,2024-06-02 10:38:23,6002660e01f3b1b72159da84d3eceb55,86.28.107.21,"Mozilla/5.0 (Windows NT 10.0; Win64; x64) AppleWebKit/537.36 (KHTML, like Gecko) Chrome/125.0.0.0 Safari/537.36",WebKit,Chrome,125.0.0.0,Windows,10.0,https://app.prolific.com/,"en-GB,en-US;q=0.9,en;q=0.8",vxh5qr,"[""exposure_4s_15.mp3""]",exposure,,exp_noresponse,,,,,,
null,null,audio-keyboard-response,51,837194,0.0-16.0-35.0,10,tonic Cs5,2024-06-02 10:38:23,6002660e01f3b1b72159da84d3eceb55,86.28.107.21,"Mozilla/5.0 (Windows NT 10.0; Win64; x64) AppleWebKit/537.36 (KHTML, like Gecko) Chrome/125.0.0.0 Safari/537.36",WebKit,Chrome,125.0.0.0,Windows,10.0,https://app.prolific.com/,"en-GB,en-US;q=0.9,en;q=0.8",vxh5qr,"[""exposure_4s_8.mp3""]",exposure,,exp_noresponse,,,,,,
null,null,audio-keyboard-response,52,860206,0.0-16.0-36.0,10,tonic Cs5,2024-06-02 10:38:23,6002660e01f3b1b72159da84d3eceb55,86.28.107.21,"Mozilla/5.0 (Windows NT 10.0; Win64; x64) AppleWebKit/537.36 (KHTML, like Gecko) Chrome/125.0.0.0 Safari/537.36",WebKit,Chrome,125.0.0.0,Windows,10.0,https://app.prolific.com/,"en-GB,en-US;q=0.9,en;q=0.8",vxh5qr,"[""exposure_4s_33.mp3""]",exposure,,exp_noresponse,,,,,,
null,null,audio-keyboard-response,53,883216,0.0-16.0-37.0,10,tonic Cs5,2024-06-02 10:38:23,6002660e01f3b1b72159da84d3eceb55,86.28.107.21,"Mozilla/5.0 (Windows NT 10.0; Win64; x64) AppleWebKit/537.36 (KHTML, like Gecko) Chrome/125.0.0.0 Safari/537.36",WebKit,Chrome,125.0.0.0,Windows,10.0,https://app.prolific.com/,"en-GB,en-US;q=0.9,en;q=0.8",vxh5qr,"[""exposure_4s_1.mp3""]",exposure,,exp_noresponse,,,,,,
null,null,audio-keyboard-response,54,906237,0.0-16.0-38.0,10,tonic Cs5,2024-06-02 10:38:23,6002660e01f3b1b72159da84d3eceb55,86.28.107.21,"Mozilla/5.0 (Windows NT 10.0; Win64; x64) AppleWebKit/537.36 (KHTML, like Gecko) Chrome/125.0.0.0 Safari/537.36",WebKit,Chrome,125.0.0.0,Windows,10.0,https://app.prolific.com/,"en-GB,en-US;q=0.9,en;q=0.8",vxh5qr,"[""exposure_4s_30.mp3""]",exposure,,exp_noresponse,,,,,,
7971,1,audio-button-response,55,914211,0.0-16.0-39.0,10,tonic Cs5,2024-06-02 10:38:23,6002660e01f3b1b72159da84d3eceb55,86.28.107.21,"Mozilla/5.0 (Windows NT 10.0; Win64; x64) AppleWebKit/537.36 (KHTML, like Gecko) Chrome/125.0.0.0 Safari/537.36",WebKit,Chrome,125.0.0.0,Windows,10.0,https://app.prolific.com/,"en-GB,en-US;q=0.9,en;q=0.8",vxh5qr,attn_length_easy_1.mp3,exposure,true,attncheck,,,,,,
null,null,audio-keyboard-response,56,937222,0.0-16.0-40.0,10,tonic Cs5,2024-06-02 10:38:23,6002660e01f3b1b72159da84d3eceb55,86.28.107.21,"Mozilla/5.0 (Windows NT 10.0; Win64; x64) AppleWebKit/537.36 (KHTML, like Gecko) Chrome/125.0.0.0 Safari/537.36",WebKit,Chrome,125.0.0.0,Windows,10.0,https://app.prolific.com/,"en-GB,en-US;q=0.9,en;q=0.8",vxh5qr,"[""exposure_4s_24.mp3""]",exposure,,exp_noresponse,,,,,,
null,null,audio-keyboard-response,57,960243,0.0-16.0-41.0,10,tonic Cs5,2024-06-02 10:38:23,6002660e01f3b1b72159da84d3eceb55,86.28.107.21,"Mozilla/5.0 (Windows NT 10.0; Win64; x64) AppleWebKit/537.36 (KHTML, like Gecko) Chrome/125.0.0.0 Safari/537.36",WebKit,Chrome,125.0.0.0,Windows,10.0,https://app.prolific.com/,"en-GB,en-US;q=0.9,en;q=0.8",vxh5qr,"[""exposure_4s_30.mp3""]",exposure,,exp_noresponse,,,,,,
7800,1,audio-button-response,58,968225,0.0-16.0-42.0,10,tonic Cs5,2024-06-02 10:38:23,6002660e01f3b1b72159da84d3eceb55,86.28.107.21,"Mozilla/5.0 (Windows NT 10.0; Win64; x64) AppleWebKit/537.36 (KHTML, like Gecko) Chrome/125.0.0.0 Safari/537.36",WebKit,Chrome,125.0.0.0,Windows,10.0,https://app.prolific.com/,"en-GB,en-US;q=0.9,en;q=0.8",vxh5qr,attn_length_int_1.mp3,exposure,true,attncheck,,,,,,
null,null,audio-keyboard-response,59,991232,0.0-16.0-43.0,10,tonic Cs5,2024-06-02 10:38:23,6002660e01f3b1b72159da84d3eceb55,86.28.107.21,"Mozilla/5.0 (Windows NT 10.0; Win64; x64) AppleWebKit/537.36 (KHTML, like Gecko) Chrome/125.0.0.0 Safari/537.36",WebKit,Chrome,125.0.0.0,Windows,10.0,https://app.prolific.com/,"en-GB,en-US;q=0.9,en;q=0.8",vxh5qr,"[""exposure_4s_7.mp3""]",exposure,,exp_noresponse,,,,,,
null,null,audio-keyboard-response,60,1014641,0.0-16.0-44.0,10,tonic Cs5,2024-06-02 10:38:23,6002660e01f3b1b72159da84d3eceb55,86.28.107.21,"Mozilla/5.0 (Windows NT 10.0; Win64; x64) AppleWebKit/537.36 (KHTML, like Gecko) Chrome/125.0.0.0 Safari/537.36",WebKit,Chrome,125.0.0.0,Windows,10.0,https://app.prolific.com/,"en-GB,en-US;q=0.9,en;q=0.8",vxh5qr,"[""exposure_4s_10.mp3""]",exposure,,exp_noresponse,,,,,,
null,null,audio-keyboard-response,61,1038038,0.0-16.0-45.0,10,tonic Cs5,2024-06-02 10:38:23,6002660e01f3b1b72159da84d3eceb55,86.28.107.21,"Mozilla/5.0 (Windows NT 10.0; Win64; x64) AppleWebKit/537.36 (KHTML, like Gecko) Chrome/125.0.0.0 Safari/537.36",WebKit,Chrome,125.0.0.0,Windows,10.0,https://app.prolific.com/,"en-GB,en-US;q=0.9,en;q=0.8",vxh5qr,"[""exposure_4s_2.mp3""]",exposure,,exp_noresponse,,,,,,
5632,1,audio-slider-response,62,1043827,0.0-16.0-46.0,10,tonic Cs5,2024-06-02 10:38:23,6002660e01f3b1b72159da84d3eceb55,86.28.107.21,"Mozilla/5.0 (Windows NT 10.0; Win64; x64) AppleWebKit/537.36 (KHTML, like Gecko) Chrome/125.0.0.0 Safari/537.36",WebKit,Chrome,125.0.0.0,Windows,10.0,https://app.prolific.com/,"en-GB,en-US;q=0.9,en;q=0.8",vxh5qr,"[""grammatical_8.mp3""]",exposure,,exp_liking,4,,,,,
null,null,audio-keyboard-response,63,1067252,0.0-16.0-47.0,10,tonic Cs5,2024-06-02 10:38:23,6002660e01f3b1b72159da84d3eceb55,86.28.107.21,"Mozilla/5.0 (Windows NT 10.0; Win64; x64) AppleWebKit/537.36 (KHTML, like Gecko) Chrome/125.0.0.0 Safari/537.36",WebKit,Chrome,125.0.0.0,Windows,10.0,https://app.prolific.com/,"en-GB,en-US;q=0.9,en;q=0.8",vxh5qr,"[""exposure_4s_6.mp3""]",exposure,,exp_noresponse,,,,,,
null,null,audio-keyboard-response,64,1090264,0.0-16.0-48.0,10,tonic Cs5,2024-06-02 10:38:23,6002660e01f3b1b72159da84d3eceb55,86.28.107.21,"Mozilla/5.0 (Windows NT 10.0; Win64; x64) AppleWebKit/537.36 (KHTML, like Gecko) Chrome/125.0.0.0 Safari/537.36",WebKit,Chrome,125.0.0.0,Windows,10.0,https://app.prolific.com/,"en-GB,en-US;q=0.9,en;q=0.8",vxh5qr,"[""exposure_4s_39.mp3""]",exposure,,exp_noresponse,,,,,,
null,null,audio-keyboard-response,65,1113770,0.0-16.0-49.0,10,tonic Cs5,2024-06-02 10:38:23,6002660e01f3b1b72159da84d3eceb55,86.28.107.21,"Mozilla/5.0 (Windows NT 10.0; Win64; x64) AppleWebKit/537.36 (KHTML, like Gecko) Chrome/125.0.0.0 Safari/537.36",WebKit,Chrome,125.0.0.0,Windows,10.0,https://app.prolific.com/,"en-GB,en-US;q=0.9,en;q=0.8",vxh5qr,"[""exposure_4s_11.mp3""]",exposure,,exp_noresponse,,,,,,
null,null,audio-keyboard-response,66,1137164,0.0-16.0-50.0,10,tonic Cs5,2024-06-02 10:38:23,6002660e01f3b1b72159da84d3eceb55,86.28.107.21,"Mozilla/5.0 (Windows NT 10.0; Win64; x64) AppleWebKit/537.36 (KHTML, like Gecko) Chrome/125.0.0.0 Safari/537.36",WebKit,Chrome,125.0.0.0,Windows,10.0,https://app.prolific.com/,"en-GB,en-US;q=0.9,en;q=0.8",vxh5qr,"[""exposure_4s_27.mp3""]",exposure,,exp_noresponse,,,,,,
null,null,audio-keyboard-response,67,1160183,0.0-16.0-51.0,10,tonic Cs5,2024-06-02 10:38:23,6002660e01f3b1b72159da84d3eceb55,86.28.107.21,"Mozilla/5.0 (Windows NT 10.0; Win64; x64) AppleWebKit/537.36 (KHTML, like Gecko) Chrome/125.0.0.0 Safari/537.36",WebKit,Chrome,125.0.0.0,Windows,10.0,https://app.prolific.com/,"en-GB,en-US;q=0.9,en;q=0.8",vxh5qr,"[""exposure_4s_32.mp3""]",exposure,,exp_noresponse,,,,,,
null,null,audio-keyboard-response,68,1183191,0.0-16.0-52.0,10,tonic Cs5,2024-06-02 10:38:23,6002660e01f3b1b72159da84d3eceb55,86.28.107.21,"Mozilla/5.0 (Windows NT 10.0; Win64; x64) AppleWebKit/537.36 (KHTML, like Gecko) Chrome/125.0.0.0 Safari/537.36",WebKit,Chrome,125.0.0.0,Windows,10.0,https://app.prolific.com/,"en-GB,en-US;q=0.9,en;q=0.8",vxh5qr,"[""exposure_4s_2.mp3""]",exposure,,exp_noresponse,,,,,,
9160,1,audio-button-response,69,1192353,0.0-16.0-53.0,10,tonic Cs5,2024-06-02 10:38:23,6002660e01f3b1b72159da84d3eceb55,86.28.107.21,"Mozilla/5.0 (Windows NT 10.0; Win64; x64) AppleWebKit/537.36 (KHTML, like Gecko) Chrome/125.0.0.0 Safari/537.36",WebKit,Chrome,125.0.0.0,Windows,10.0,https://app.prolific.com/,"en-GB,en-US;q=0.9,en;q=0.8",vxh5qr,attn_length_easy_1.mp3,exposure,true,attncheck,,,,,,
6720,1,audio-slider-response,70,1199212,0.0-16.0-54.0,10,tonic Cs5,2024-06-02 10:38:23,6002660e01f3b1b72159da84d3eceb55,86.28.107.21,"Mozilla/5.0 (Windows NT 10.0; Win64; x64) AppleWebKit/537.36 (KHTML, like Gecko) Chrome/125.0.0.0 Safari/537.36",WebKit,Chrome,125.0.0.0,Windows,10.0,https://app.prolific.com/,"en-GB,en-US;q=0.9,en;q=0.8",vxh5qr,"[""grammatical_3.mp3""]",exposure,,exp_liking,4,,,,,
null,null,audio-keyboard-response,71,1222229,0.0-16.0-55.0,10,tonic Cs5,2024-06-02 10:38:23,6002660e01f3b1b72159da84d3eceb55,86.28.107.21,"Mozilla/5.0 (Windows NT 10.0; Win64; x64) AppleWebKit/537.36 (KHTML, like Gecko) Chrome/125.0.0.0 Safari/537.36",WebKit,Chrome,125.0.0.0,Windows,10.0,https://app.prolific.com/,"en-GB,en-US;q=0.9,en;q=0.8",vxh5qr,"[""exposure_4s_35.mp3""]",exposure,,exp_noresponse,,,,,,
null,null,audio-keyboard-response,72,1245248,0.0-16.0-56.0,10,tonic Cs5,2024-06-02 10:38:23,6002660e01f3b1b72159da84d3eceb55,86.28.107.21,"Mozilla/5.0 (Windows NT 10.0; Win64; x64) AppleWebKit/537.36 (KHTML, like Gecko) Chrome/125.0.0.0 Safari/537.36",WebKit,Chrome,125.0.0.0,Windows,10.0,https://app.prolific.com/,"en-GB,en-US;q=0.9,en;q=0.8",vxh5qr,"[""exposure_4s_43.mp3""]",exposure,,exp_noresponse,,,,,,
8459,1,audio-button-response,73,1253721,0.0-16.0-57.0,10,tonic Cs5,2024-06-02 10:38:23,6002660e01f3b1b72159da84d3eceb55,86.28.107.21,"Mozilla/5.0 (Windows NT 10.0; Win64; x64) AppleWebKit/537.36 (KHTML, like Gecko) Chrome/125.0.0.0 Safari/537.36",WebKit,Chrome,125.0.0.0,Windows,10.0,https://app.prolific.com/,"en-GB,en-US;q=0.9,en;q=0.8",vxh5qr,attn_length_easy_1.mp3,exposure,true,attncheck,,,,,,
null,null,audio-keyboard-response,74,1276739,0.0-16.0-58.0,10,tonic Cs5,2024-06-02 10:38:23,6002660e01f3b1b72159da84d3eceb55,86.28.107.21,"Mozilla/5.0 (Windows NT 10.0; Win64; x64) AppleWebKit/537.36 (KHTML, like Gecko) Chrome/125.0.0.0 Safari/537.36",WebKit,Chrome,125.0.0.0,Windows,10.0,https://app.prolific.com/,"en-GB,en-US;q=0.9,en;q=0.8",vxh5qr,"[""exposure_4s_11.mp3""]",exposure,,exp_noresponse,,,,,,
null,null,audio-keyboard-response,75,1299759,0.0-16.0-59.0,10,tonic Cs5,2024-06-02 10:38:23,6002660e01f3b1b72159da84d3eceb55,86.28.107.21,"Mozilla/5.0 (Windows NT 10.0; Win64; x64) AppleWebKit/537.36 (KHTML, like Gecko) Chrome/125.0.0.0 Safari/537.36",WebKit,Chrome,125.0.0.0,Windows,10.0,https://app.prolific.com/,"en-GB,en-US;q=0.9,en;q=0.8",vxh5qr,"[""exposure_4s_35.mp3""]",exposure,,exp_noresponse,,,,,,
5847, ,html-keyboard-response,76,1305611,0.0-17.0,10,tonic Cs5,2024-06-02 10:38:23,6002660e01f3b1b72159da84d3eceb55,86.28.107.21,"Mozilla/5.0 (Windows NT 10.0; Win64; x64) AppleWebKit/537.36 (KHTML, like Gecko) Chrome/125.0.0.0 Safari/537.36",WebKit,Chrome,125.0.0.0,Windows,10.0,https://app.prolific.com/,"en-GB,en-US;q=0.9,en;q=0.8",vxh5qr,"<p>You will now be asked to judge how similar some melodies are to what you have
    just listened to. </p>
    <p><b>Press the space bar to continue.</b></p>",,,,,,,,,
3806, ,html-keyboard-response,77,1309419,0.0-18.0,10,tonic Cs5,2024-06-02 10:38:23,6002660e01f3b1b72159da84d3eceb55,86.28.107.21,"Mozilla/5.0 (Windows NT 10.0; Win64; x64) AppleWebKit/537.36 (KHTML, like Gecko) Chrome/125.0.0.0 Safari/537.36",WebKit,Chrome,125.0.0.0,Windows,10.0,https://app.prolific.com/,"en-GB,en-US;q=0.9,en;q=0.8",vxh5qr,"<p>The changes in the melodies are subtle. If you are not sure, go with your gut feeling.</p>
    <p><b>Press the space bar to continue.</b></p>",,,,,,,,,
6691,7,audio-slider-response,78,1316252,0.0-19.0-0.0,10,tonic Cs5,2024-06-02 10:38:23,6002660e01f3b1b72159da84d3eceb55,86.28.107.21,"Mozilla/5.0 (Windows NT 10.0; Win64; x64) AppleWebKit/537.36 (KHTML, like Gecko) Chrome/125.0.0.0 Safari/537.36",WebKit,Chrome,125.0.0.0,Windows,10.0,https://app.prolific.com/,"en-GB,en-US;q=0.9,en;q=0.8",vxh5qr,grammatical_6.mp3,grammar_learning,,,4,,,,,
6819,3,audio-slider-response,79,1323204,0.0-19.0-0.1,10,tonic Cs5,2024-06-02 10:38:23,6002660e01f3b1b72159da84d3eceb55,86.28.107.21,"Mozilla/5.0 (Windows NT 10.0; Win64; x64) AppleWebKit/537.36 (KHTML, like Gecko) Chrome/125.0.0.0 Safari/537.36",WebKit,Chrome,125.0.0.0,Windows,10.0,https://app.prolific.com/,"en-GB,en-US;q=0.9,en;q=0.8",vxh5qr,agrammatical_2.mp3,grammar_learning,,,4,,,,,
8901,6,audio-slider-response,80,1332106,0.0-19.0-0.2,10,tonic Cs5,2024-06-02 10:38:23,6002660e01f3b1b72159da84d3eceb55,86.28.107.21,"Mozilla/5.0 (Windows NT 10.0; Win64; x64) AppleWebKit/537.36 (KHTML, like Gecko) Chrome/125.0.0.0 Safari/537.36",WebKit,Chrome,125.0.0.0,Windows,10.0,https://app.prolific.com/,"en-GB,en-US;q=0.9,en;q=0.8",vxh5qr,grammatical_8.mp3,grammar_learning,,,4,,,,,
7011,7,audio-slider-response,81,1339282,0.0-19.0-0.3,10,tonic Cs5,2024-06-02 10:38:23,6002660e01f3b1b72159da84d3eceb55,86.28.107.21,"Mozilla/5.0 (Windows NT 10.0; Win64; x64) AppleWebKit/537.36 (KHTML, like Gecko) Chrome/125.0.0.0 Safari/537.36",WebKit,Chrome,125.0.0.0,Windows,10.0,https://app.prolific.com/,"en-GB,en-US;q=0.9,en;q=0.8",vxh5qr,grammatical_4.mp3,grammar_learning,,,4,,,,,
6499,3,audio-slider-response,82,1345931,0.0-19.0-0.4,10,tonic Cs5,2024-06-02 10:38:23,6002660e01f3b1b72159da84d3eceb55,86.28.107.21,"Mozilla/5.0 (Windows NT 10.0; Win64; x64) AppleWebKit/537.36 (KHTML, like Gecko) Chrome/125.0.0.0 Safari/537.36",WebKit,Chrome,125.0.0.0,Windows,10.0,https://app.prolific.com/,"en-GB,en-US;q=0.9,en;q=0.8",vxh5qr,agrammatical_6.mp3,grammar_learning,,,4,,,,,
6909,6,audio-slider-response,83,1352973,0.0-19.0-0.5,10,tonic Cs5,2024-06-02 10:38:23,6002660e01f3b1b72159da84d3eceb55,86.28.107.21,"Mozilla/5.0 (Windows NT 10.0; Win64; x64) AppleWebKit/537.36 (KHTML, like Gecko) Chrome/125.0.0.0 Safari/537.36",WebKit,Chrome,125.0.0.0,Windows,10.0,https://app.prolific.com/,"en-GB,en-US;q=0.9,en;q=0.8",vxh5qr,grammatical_5.mp3,grammar_learning,,,4,,,,,
10741,3,audio-slider-response,84,1363863,0.0-19.0-0.6,10,tonic Cs5,2024-06-02 10:38:23,6002660e01f3b1b72159da84d3eceb55,86.28.107.21,"Mozilla/5.0 (Windows NT 10.0; Win64; x64) AppleWebKit/537.36 (KHTML, like Gecko) Chrome/125.0.0.0 Safari/537.36",WebKit,Chrome,125.0.0.0,Windows,10.0,https://app.prolific.com/,"en-GB,en-US;q=0.9,en;q=0.8",vxh5qr,agrammatical_5.mp3,grammar_learning,,,4,,,,,
7229,6,audio-slider-response,85,1371221,0.0-19.0-0.7,10,tonic Cs5,2024-06-02 10:38:23,6002660e01f3b1b72159da84d3eceb55,86.28.107.21,"Mozilla/5.0 (Windows NT 10.0; Win64; x64) AppleWebKit/537.36 (KHTML, like Gecko) Chrome/125.0.0.0 Safari/537.36",WebKit,Chrome,125.0.0.0,Windows,10.0,https://app.prolific.com/,"en-GB,en-US;q=0.9,en;q=0.8",vxh5qr,grammatical_7.mp3,grammar_learning,,,4,,,,,
11059,7,audio-slider-response,86,1382449,0.0-19.0-0.8,10,tonic Cs5,2024-06-02 10:38:23,6002660e01f3b1b72159da84d3eceb55,86.28.107.21,"Mozilla/5.0 (Windows NT 10.0; Win64; x64) AppleWebKit/537.36 (KHTML, like Gecko) Chrome/125.0.0.0 Safari/537.36",WebKit,Chrome,125.0.0.0,Windows,10.0,https://app.prolific.com/,"en-GB,en-US;q=0.9,en;q=0.8",vxh5qr,grammatical_2.mp3,grammar_learning,,,4,,,,,
9971,3,audio-slider-response,87,1392549,0.0-19.0-0.9,10,tonic Cs5,2024-06-02 10:38:23,6002660e01f3b1b72159da84d3eceb55,86.28.107.21,"Mozilla/5.0 (Windows NT 10.0; Win64; x64) AppleWebKit/537.36 (KHTML, like Gecko) Chrome/125.0.0.0 Safari/537.36",WebKit,Chrome,125.0.0.0,Windows,10.0,https://app.prolific.com/,"en-GB,en-US;q=0.9,en;q=0.8",vxh5qr,agrammatical_4.mp3,grammar_learning,,,4,,,,,
9341,6,audio-slider-response,88,1401898,0.0-19.0-0.10,10,tonic Cs5,2024-06-02 10:38:23,6002660e01f3b1b72159da84d3eceb55,86.28.107.21,"Mozilla/5.0 (Windows NT 10.0; Win64; x64) AppleWebKit/537.36 (KHTML, like Gecko) Chrome/125.0.0.0 Safari/537.36",WebKit,Chrome,125.0.0.0,Windows,10.0,https://app.prolific.com/,"en-GB,en-US;q=0.9,en;q=0.8",vxh5qr,grammatical_1.mp3,grammar_learning,,,4,,,,,
11560,4,audio-slider-response,89,1413596,0.0-19.0-0.11,10,tonic Cs5,2024-06-02 10:38:23,6002660e01f3b1b72159da84d3eceb55,86.28.107.21,"Mozilla/5.0 (Windows NT 10.0; Win64; x64) AppleWebKit/537.36 (KHTML, like Gecko) Chrome/125.0.0.0 Safari/537.36",WebKit,Chrome,125.0.0.0,Windows,10.0,https://app.prolific.com/,"en-GB,en-US;q=0.9,en;q=0.8",vxh5qr,agrammatical_3.mp3,grammar_learning,,,4,,,,,
7512,5,audio-slider-response,90,1421112,0.0-19.0-0.12,10,tonic Cs5,2024-06-02 10:38:23,6002660e01f3b1b72159da84d3eceb55,86.28.107.21,"Mozilla/5.0 (Windows NT 10.0; Win64; x64) AppleWebKit/537.36 (KHTML, like Gecko) Chrome/125.0.0.0 Safari/537.36",WebKit,Chrome,125.0.0.0,Windows,10.0,https://app.prolific.com/,"en-GB,en-US;q=0.9,en;q=0.8",vxh5qr,grammatical_3.mp3,grammar_learning,,,4,,,,,
6712,3,audio-slider-response,91,1427952,0.0-19.0-0.13,10,tonic Cs5,2024-06-02 10:38:23,6002660e01f3b1b72159da84d3eceb55,86.28.107.21,"Mozilla/5.0 (Windows NT 10.0; Win64; x64) AppleWebKit/537.36 (KHTML, like Gecko) Chrome/125.0.0.0 Safari/537.36",WebKit,Chrome,125.0.0.0,Windows,10.0,https://app.prolific.com/,"en-GB,en-US;q=0.9,en;q=0.8",vxh5qr,agrammatical_8.mp3,grammar_learning,,,4,,,,,
7851,3,audio-slider-response,92,1435947,0.0-19.0-0.14,10,tonic Cs5,2024-06-02 10:38:23,6002660e01f3b1b72159da84d3eceb55,86.28.107.21,"Mozilla/5.0 (Windows NT 10.0; Win64; x64) AppleWebKit/537.36 (KHTML, like Gecko) Chrome/125.0.0.0 Safari/537.36",WebKit,Chrome,125.0.0.0,Windows,10.0,https://app.prolific.com/,"en-GB,en-US;q=0.9,en;q=0.8",vxh5qr,agrammatical_1.mp3,grammar_learning,,,4,,,,,
6779,3,audio-slider-response,93,1442889,0.0-19.0-0.15,10,tonic Cs5,2024-06-02 10:38:23,6002660e01f3b1b72159da84d3eceb55,86.28.107.21,"Mozilla/5.0 (Windows NT 10.0; Win64; x64) AppleWebKit/537.36 (KHTML, like Gecko) Chrome/125.0.0.0 Safari/537.36",WebKit,Chrome,125.0.0.0,Windows,10.0,https://app.prolific.com/,"en-GB,en-US;q=0.9,en;q=0.8",vxh5qr,agrammatical_7.mp3,grammar_learning,,,4,,,,,
104832,"{""prolific_id"":""The melody was typically 13 notes long, so shorter and longer ones were more different. I think there were lots of variants, and I might actually have heard all of the melodies before, but the melodies all seemed to be reaching towards a common tune where some notes were more likely than others, so I based my judgement off of that. I think I probably chose the more jarring melodies as less similar as well.""}",survey-html-form,94,1547726,0.0-20.0,10,tonic Cs5,2024-06-02 10:38:23,6002660e01f3b1b72159da84d3eceb55,86.28.107.21,"Mozilla/5.0 (Windows NT 10.0; Win64; x64) AppleWebKit/537.36 (KHTML, like Gecko) Chrome/125.0.0.0 Safari/537.36",WebKit,Chrome,125.0.0.0,Windows,10.0,https://app.prolific.com/,"en-GB,en-US;q=0.9,en;q=0.8",vxh5qr,,,,,,,,,,
4486, ,html-keyboard-response,95,1552218,0.0-21.0,10,tonic Cs5,2024-06-02 10:38:23,6002660e01f3b1b72159da84d3eceb55,86.28.107.21,"Mozilla/5.0 (Windows NT 10.0; Win64; x64) AppleWebKit/537.36 (KHTML, like Gecko) Chrome/125.0.0.0 Safari/537.36",WebKit,Chrome,125.0.0.0,Windows,10.0,https://app.prolific.com/,"en-GB,en-US;q=0.9,en;q=0.8",vxh5qr,"<p>In this part of the experiment, you will presented with two melodies in succession. 
    <p><b>Press the space bar to continue.</b></p>",,,,,,,,,
6990, ,html-keyboard-response,96,1559214,0.0-22.0,10,tonic Cs5,2024-06-02 10:38:23,6002660e01f3b1b72159da84d3eceb55,86.28.107.21,"Mozilla/5.0 (Windows NT 10.0; Win64; x64) AppleWebKit/537.36 (KHTML, like Gecko) Chrome/125.0.0.0 Safari/537.36",WebKit,Chrome,125.0.0.0,Windows,10.0,https://app.prolific.com/,"en-GB,en-US;q=0.9,en;q=0.8",vxh5qr,"<p>The melodies are nearly identical, but have either an added accent or one different note. </p>
    <p><b>Press the space bar to continue.</b></p>",,,,,,,,,
1971, ,html-keyboard-response,97,1561190,0.0-23.0,10,tonic Cs5,2024-06-02 10:38:23,6002660e01f3b1b72159da84d3eceb55,86.28.107.21,"Mozilla/5.0 (Windows NT 10.0; Win64; x64) AppleWebKit/537.36 (KHTML, like Gecko) Chrome/125.0.0.0 Safari/537.36",WebKit,Chrome,125.0.0.0,Windows,10.0,https://app.prolific.com/,"en-GB,en-US;q=0.9,en;q=0.8",vxh5qr,"<p>    Please choose the melody that <b>sounds better to you.</b></p>
    <p><b>Press the space bar to continue.</b></p>",,,,,,,,,
