,rt,response,trial_type,trial_index,time_elapsed,internal_node_id,run_id,condition,recorded_at,source_code_version,ip,user_agent,device,browser,browser_version,platform,platform_version,referer,accept_language,subject,stimulus,task,correct,subtask,slider_start,accent,high_IC,accent_chosen,high_IC_chosen,question_order
0,12317.0,"{""prolific_id"":""5a6f40c2d6eacc000176fada""}",survey-html-form,0,12319,0.0-0.0,5,tonic G5,2024-05-31 10:18:57,ab8c78d7af27e364ce40308a28d3270a,209.35.84.96,"Mozilla/5.0 (Windows NT 10.0; Win64; x64) AppleWebKit/537.36 (KHTML, like Gecko) Chrome/125.0.0.0 Safari/537.36",WebKit,Chrome,125.0.0.0,Windows,10.0,https://app.prolific.com/,"en-US,en;q=0.9",7e9x0n,,,,,,,,,,
1,7391.0, ,html-keyboard-response,1,19712,0.0-1.0,5,tonic G5,2024-05-31 10:18:57,ab8c78d7af27e364ce40308a28d3270a,209.35.84.96,"Mozilla/5.0 (Windows NT 10.0; Win64; x64) AppleWebKit/537.36 (KHTML, like Gecko) Chrome/125.0.0.0 Safari/537.36",WebKit,Chrome,125.0.0.0,Windows,10.0,https://app.prolific.com/,"en-US,en;q=0.9",7e9x0n,"
    <p>Please complete the experiment in a quiet place.
      We highly recommend using headphones.</p>

    </p align = 'justify'> <b>Press the space bar to proceed.</b> </p>",,,,,,,,,
2,5345.0, ,html-keyboard-response,2,25058,0.0-2.0,5,tonic G5,2024-05-31 10:18:57,ab8c78d7af27e364ce40308a28d3270a,209.35.84.96,"Mozilla/5.0 (Windows NT 10.0; Win64; x64) AppleWebKit/537.36 (KHTML, like Gecko) Chrome/125.0.0.0 Safari/537.36",WebKit,Chrome,125.0.0.0,Windows,10.0,https://app.prolific.com/,"en-US,en;q=0.9",7e9x0n,"
    <p>A series of soundchecks will now be played to help you adjust the volume
      to a comfortable level. </p>

    </p align = 'justify'> <b>Press the space bar to proceed.</b> </p>",,,,,,,,,
3,3741.0,0,audio-button-response,3,29723,0.0-3.0-0.0,5,tonic G5,2024-05-31 10:18:57,ab8c78d7af27e364ce40308a28d3270a,209.35.84.96,"Mozilla/5.0 (Windows NT 10.0; Win64; x64) AppleWebKit/537.36 (KHTML, like Gecko) Chrome/125.0.0.0 Safari/537.36",WebKit,Chrome,125.0.0.0,Windows,10.0,https://app.prolific.com/,"en-US,en;q=0.9",7e9x0n,grammatical_1.mp3,,,,,,,,,
4,3749.0,1,audio-button-response,4,33472,0.0-3.1-0.1,5,tonic G5,2024-05-31 10:18:57,ab8c78d7af27e364ce40308a28d3270a,209.35.84.96,"Mozilla/5.0 (Windows NT 10.0; Win64; x64) AppleWebKit/537.36 (KHTML, like Gecko) Chrome/125.0.0.0 Safari/537.36",WebKit,Chrome,125.0.0.0,Windows,10.0,https://app.prolific.com/,"en-US,en;q=0.9",7e9x0n,grammatical_1.mp3,,,,,,,,,
5,10642.0, ,html-keyboard-response,5,44114,0.0-4.0,5,tonic G5,2024-05-31 10:18:57,ab8c78d7af27e364ce40308a28d3270a,209.35.84.96,"Mozilla/5.0 (Windows NT 10.0; Win64; x64) AppleWebKit/537.36 (KHTML, like Gecko) Chrome/125.0.0.0 Safari/537.36",WebKit,Chrome,125.0.0.0,Windows,10.0,https://app.prolific.com/,"en-US,en;q=0.9",7e9x0n,"<p width = 300 px>
    You will now hear two melodies in succession. 
    The notes in each melody are the same, but there is an accent on one note for one of the melodies. 
    <b>Listen for which melody has the accent.</b>
    </p>
    
    Press the space bar to continue.",,,,,,,,,
6,5518.0, ,html-keyboard-response,6,49633,0.0-5.0,5,tonic G5,2024-05-31 10:18:57,ab8c78d7af27e364ce40308a28d3270a,209.35.84.96,"Mozilla/5.0 (Windows NT 10.0; Win64; x64) AppleWebKit/537.36 (KHTML, like Gecko) Chrome/125.0.0.0 Safari/537.36",WebKit,Chrome,125.0.0.0,Windows,10.0,https://app.prolific.com/,"en-US,en;q=0.9",7e9x0n,"<p width = 300 px>
    <b>You must score at least 2/3 to proceed with the experiment.</b>
    </p>
    
    Press the space bar to continue.",,,,,,,,,
7,10509.0,1,audio-button-response,7,60223,0.0-6.0,5,tonic G5,2024-05-31 10:18:57,ab8c78d7af27e364ce40308a28d3270a,209.35.84.96,"Mozilla/5.0 (Windows NT 10.0; Win64; x64) AppleWebKit/537.36 (KHTML, like Gecko) Chrome/125.0.0.0 Safari/537.36",WebKit,Chrome,125.0.0.0,Windows,10.0,https://app.prolific.com/,"en-US,en;q=0.9",7e9x0n,fc_accents_32_1.mp3,soundcheck,True,,,,,,,
8,1633.0, ,html-keyboard-response,8,61857,0.0-7.0,5,tonic G5,2024-05-31 10:18:57,ab8c78d7af27e364ce40308a28d3270a,209.35.84.96,"Mozilla/5.0 (Windows NT 10.0; Win64; x64) AppleWebKit/537.36 (KHTML, like Gecko) Chrome/125.0.0.0 Safari/537.36",WebKit,Chrome,125.0.0.0,Windows,10.0,https://app.prolific.com/,"en-US,en;q=0.9",7e9x0n,<p>Correct!</p> Press the space bar to continue.,,,,,,,,,
9,6331.0,1,audio-button-response,9,68264,0.0-8.0,5,tonic G5,2024-05-31 10:18:57,ab8c78d7af27e364ce40308a28d3270a,209.35.84.96,"Mozilla/5.0 (Windows NT 10.0; Win64; x64) AppleWebKit/537.36 (KHTML, like Gecko) Chrome/125.0.0.0 Safari/537.36",WebKit,Chrome,125.0.0.0,Windows,10.0,https://app.prolific.com/,"en-US,en;q=0.9",7e9x0n,fc_accents_56_4.mp3,soundcheck,True,,,,,,,
10,1344.0, ,html-keyboard-response,10,69609,0.0-9.0,5,tonic G5,2024-05-31 10:18:57,ab8c78d7af27e364ce40308a28d3270a,209.35.84.96,"Mozilla/5.0 (Windows NT 10.0; Win64; x64) AppleWebKit/537.36 (KHTML, like Gecko) Chrome/125.0.0.0 Safari/537.36",WebKit,Chrome,125.0.0.0,Windows,10.0,https://app.prolific.com/,"en-US,en;q=0.9",7e9x0n,<p>Correct!</p> Press the space bar to continue.,,,,,,,,,
11,5880.0,1,audio-button-response,11,75567,0.0-10.0,5,tonic G5,2024-05-31 10:18:57,ab8c78d7af27e364ce40308a28d3270a,209.35.84.96,"Mozilla/5.0 (Windows NT 10.0; Win64; x64) AppleWebKit/537.36 (KHTML, like Gecko) Chrome/125.0.0.0 Safari/537.36",WebKit,Chrome,125.0.0.0,Windows,10.0,https://app.prolific.com/,"en-US,en;q=0.9",7e9x0n,fc_accents_54_4.mp3,soundcheck,True,,,,,,,
12,1142.0, ,html-keyboard-response,12,76709,0.0-11.0,5,tonic G5,2024-05-31 10:18:57,ab8c78d7af27e364ce40308a28d3270a,209.35.84.96,"Mozilla/5.0 (Windows NT 10.0; Win64; x64) AppleWebKit/537.36 (KHTML, like Gecko) Chrome/125.0.0.0 Safari/537.36",WebKit,Chrome,125.0.0.0,Windows,10.0,https://app.prolific.com/,"en-US,en;q=0.9",7e9x0n,<p>Correct!</p> Press the space bar to continue.,,,,,,,,,
13,9138.0, ,html-keyboard-response,13,85848,0.0-12.0,5,tonic G5,2024-05-31 10:18:57,ab8c78d7af27e364ce40308a28d3270a,209.35.84.96,"Mozilla/5.0 (Windows NT 10.0; Win64; x64) AppleWebKit/537.36 (KHTML, like Gecko) Chrome/125.0.0.0 Safari/537.36",WebKit,Chrome,125.0.0.0,Windows,10.0,https://app.prolific.com/,"en-US,en;q=0.9",7e9x0n,"If you got <b>less than 2/3</b> of the previous soundcheck questions correct, <b>we unfortunately cannot use your data or pay you</b>. Please exit the experiment now.
    
    <p>If you got <b>more than 2/3</b> correct, press the space bar to continue</p>.",,,,,,,,,
14,7988.0, ,html-keyboard-response,14,93838,0.0-13.0,5,tonic G5,2024-05-31 10:18:57,ab8c78d7af27e364ce40308a28d3270a,209.35.84.96,"Mozilla/5.0 (Windows NT 10.0; Win64; x64) AppleWebKit/537.36 (KHTML, like Gecko) Chrome/125.0.0.0 Safari/537.36",WebKit,Chrome,125.0.0.0,Windows,10.0,https://app.prolific.com/,"en-US,en;q=0.9",7e9x0n,"<p>Please listen carefully to the following set of melodies. 
      You will occassionally be asked some basic questions about some of the melodies to check your attention level. </p>
    <p><b>Press the space bar to continue.</b></p>",,,,,,,,,
15,6409.0, ,html-keyboard-response,15,100247,0.0-14.0,5,tonic G5,2024-05-31 10:18:57,ab8c78d7af27e364ce40308a28d3270a,209.35.84.96,"Mozilla/5.0 (Windows NT 10.0; Win64; x64) AppleWebKit/537.36 (KHTML, like Gecko) Chrome/125.0.0.0 Safari/537.36",WebKit,Chrome,125.0.0.0,Windows,10.0,https://app.prolific.com/,"en-US,en;q=0.9",7e9x0n,"<p>The attention questions vary in difficulty, but you must get at least some questions correct for us to pay you.</p>
    <p><b>Press the space bar to continue.</b></p>",,,,,,,,,
16,2030.0, ,html-keyboard-response,16,102278,0.0-15.0,5,tonic G5,2024-05-31 10:18:57,ab8c78d7af27e364ce40308a28d3270a,209.35.84.96,"Mozilla/5.0 (Windows NT 10.0; Win64; x64) AppleWebKit/537.36 (KHTML, like Gecko) Chrome/125.0.0.0 Safari/537.36",WebKit,Chrome,125.0.0.0,Windows,10.0,https://app.prolific.com/,"en-US,en;q=0.9",7e9x0n,"
    This part of the experiment should take <b>15-20 minutes</b>. 
    <p><b>Press the space bar to begin.</b></p>",,,,,,,,,
17,,,audio-keyboard-response,17,125601,0.0-16.0-0.0,5,tonic G5,2024-05-31 10:18:57,ab8c78d7af27e364ce40308a28d3270a,209.35.84.96,"Mozilla/5.0 (Windows NT 10.0; Win64; x64) AppleWebKit/537.36 (KHTML, like Gecko) Chrome/125.0.0.0 Safari/537.36",WebKit,Chrome,125.0.0.0,Windows,10.0,https://app.prolific.com/,"en-US,en;q=0.9",7e9x0n,"[""exposure_4s_8.mp3""]",exposure,,exp_noresponse,,,,,,
18,,,audio-keyboard-response,18,148913,0.0-16.0-1.0,5,tonic G5,2024-05-31 10:18:57,ab8c78d7af27e364ce40308a28d3270a,209.35.84.96,"Mozilla/5.0 (Windows NT 10.0; Win64; x64) AppleWebKit/537.36 (KHTML, like Gecko) Chrome/125.0.0.0 Safari/537.36",WebKit,Chrome,125.0.0.0,Windows,10.0,https://app.prolific.com/,"en-US,en;q=0.9",7e9x0n,"[""exposure_4s_16.mp3""]",exposure,,exp_noresponse,,,,,,
19,,,audio-keyboard-response,19,172067,0.0-16.0-2.0,5,tonic G5,2024-05-31 10:18:57,ab8c78d7af27e364ce40308a28d3270a,209.35.84.96,"Mozilla/5.0 (Windows NT 10.0; Win64; x64) AppleWebKit/537.36 (KHTML, like Gecko) Chrome/125.0.0.0 Safari/537.36",WebKit,Chrome,125.0.0.0,Windows,10.0,https://app.prolific.com/,"en-US,en;q=0.9",7e9x0n,"[""exposure_4s_3.mp3""]",exposure,,exp_noresponse,,,,,,
20,,,audio-keyboard-response,20,195227,0.0-16.0-3.0,5,tonic G5,2024-05-31 10:18:57,ab8c78d7af27e364ce40308a28d3270a,209.35.84.96,"Mozilla/5.0 (Windows NT 10.0; Win64; x64) AppleWebKit/537.36 (KHTML, like Gecko) Chrome/125.0.0.0 Safari/537.36",WebKit,Chrome,125.0.0.0,Windows,10.0,https://app.prolific.com/,"en-US,en;q=0.9",7e9x0n,"[""exposure_4s_23.mp3""]",exposure,,exp_noresponse,,,,,,
21,1952.0, ,audio-keyboard-response,21,218533,0.0-16.0-4.0,5,tonic G5,2024-05-31 10:18:57,ab8c78d7af27e364ce40308a28d3270a,209.35.84.96,"Mozilla/5.0 (Windows NT 10.0; Win64; x64) AppleWebKit/537.36 (KHTML, like Gecko) Chrome/125.0.0.0 Safari/537.36",WebKit,Chrome,125.0.0.0,Windows,10.0,https://app.prolific.com/,"en-US,en;q=0.9",7e9x0n,"[""exposure_4s_44.mp3""]",exposure,,exp_noresponse,,,,,,
22,,,audio-keyboard-response,22,241961,0.0-16.0-5.0,5,tonic G5,2024-05-31 10:18:57,ab8c78d7af27e364ce40308a28d3270a,209.35.84.96,"Mozilla/5.0 (Windows NT 10.0; Win64; x64) AppleWebKit/537.36 (KHTML, like Gecko) Chrome/125.0.0.0 Safari/537.36",WebKit,Chrome,125.0.0.0,Windows,10.0,https://app.prolific.com/,"en-US,en;q=0.9",7e9x0n,"[""exposure_4s_2.mp3""]",exposure,,exp_noresponse,,,,,,
23,11971.0,1,audio-button-response,23,254235,0.0-16.0-6.0,5,tonic G5,2024-05-31 10:18:57,ab8c78d7af27e364ce40308a28d3270a,209.35.84.96,"Mozilla/5.0 (Windows NT 10.0; Win64; x64) AppleWebKit/537.36 (KHTML, like Gecko) Chrome/125.0.0.0 Safari/537.36",WebKit,Chrome,125.0.0.0,Windows,10.0,https://app.prolific.com/,"en-US,en;q=0.9",7e9x0n,attn_length_hard_1.mp3,exposure,True,attncheck,,,,,,
24,,,audio-keyboard-response,24,277419,0.0-16.0-7.0,5,tonic G5,2024-05-31 10:18:57,ab8c78d7af27e364ce40308a28d3270a,209.35.84.96,"Mozilla/5.0 (Windows NT 10.0; Win64; x64) AppleWebKit/537.36 (KHTML, like Gecko) Chrome/125.0.0.0 Safari/537.36",WebKit,Chrome,125.0.0.0,Windows,10.0,https://app.prolific.com/,"en-US,en;q=0.9",7e9x0n,"[""exposure_4s_25.mp3""]",exposure,,exp_noresponse,,,,,,
25,,,audio-keyboard-response,25,300743,0.0-16.0-8.0,5,tonic G5,2024-05-31 10:18:57,ab8c78d7af27e364ce40308a28d3270a,209.35.84.96,"Mozilla/5.0 (Windows NT 10.0; Win64; x64) AppleWebKit/537.36 (KHTML, like Gecko) Chrome/125.0.0.0 Safari/537.36",WebKit,Chrome,125.0.0.0,Windows,10.0,https://app.prolific.com/,"en-US,en;q=0.9",7e9x0n,"[""exposure_4s_9.mp3""]",exposure,,exp_noresponse,,,,,,
26,,,audio-keyboard-response,26,324075,0.0-16.0-9.0,5,tonic G5,2024-05-31 10:18:57,ab8c78d7af27e364ce40308a28d3270a,209.35.84.96,"Mozilla/5.0 (Windows NT 10.0; Win64; x64) AppleWebKit/537.36 (KHTML, like Gecko) Chrome/125.0.0.0 Safari/537.36",WebKit,Chrome,125.0.0.0,Windows,10.0,https://app.prolific.com/,"en-US,en;q=0.9",7e9x0n,"[""exposure_4s_13.mp3""]",exposure,,exp_noresponse,,,,,,
27,,,audio-keyboard-response,27,347428,0.0-16.0-10.0,5,tonic G5,2024-05-31 10:18:57,ab8c78d7af27e364ce40308a28d3270a,209.35.84.96,"Mozilla/5.0 (Windows NT 10.0; Win64; x64) AppleWebKit/537.36 (KHTML, like Gecko) Chrome/125.0.0.0 Safari/537.36",WebKit,Chrome,125.0.0.0,Windows,10.0,https://app.prolific.com/,"en-US,en;q=0.9",7e9x0n,"[""exposure_4s_27.mp3""]",exposure,,exp_noresponse,,,,,,
28,12349.0,1,audio-button-response,28,359783,0.0-16.0-11.0,5,tonic G5,2024-05-31 10:18:57,ab8c78d7af27e364ce40308a28d3270a,209.35.84.96,"Mozilla/5.0 (Windows NT 10.0; Win64; x64) AppleWebKit/537.36 (KHTML, like Gecko) Chrome/125.0.0.0 Safari/537.36",WebKit,Chrome,125.0.0.0,Windows,10.0,https://app.prolific.com/,"en-US,en;q=0.9",7e9x0n,attn_length_hard_1.mp3,exposure,True,attncheck,,,,,,
29,,,audio-keyboard-response,29,382786,0.0-16.0-12.0,5,tonic G5,2024-05-31 10:18:57,ab8c78d7af27e364ce40308a28d3270a,209.35.84.96,"Mozilla/5.0 (Windows NT 10.0; Win64; x64) AppleWebKit/537.36 (KHTML, like Gecko) Chrome/125.0.0.0 Safari/537.36",WebKit,Chrome,125.0.0.0,Windows,10.0,https://app.prolific.com/,"en-US,en;q=0.9",7e9x0n,"[""exposure_4s_3.mp3""]",exposure,,exp_noresponse,,,,,,
30,8389.0,1,audio-button-response,30,391251,0.0-16.0-13.0,5,tonic G5,2024-05-31 10:18:57,ab8c78d7af27e364ce40308a28d3270a,209.35.84.96,"Mozilla/5.0 (Windows NT 10.0; Win64; x64) AppleWebKit/537.36 (KHTML, like Gecko) Chrome/125.0.0.0 Safari/537.36",WebKit,Chrome,125.0.0.0,Windows,10.0,https://app.prolific.com/,"en-US,en;q=0.9",7e9x0n,attn_length_int_1.mp3,exposure,True,attncheck,,,,,,
31,,,audio-keyboard-response,31,414263,0.0-16.0-14.0,5,tonic G5,2024-05-31 10:18:57,ab8c78d7af27e364ce40308a28d3270a,209.35.84.96,"Mozilla/5.0 (Windows NT 10.0; Win64; x64) AppleWebKit/537.36 (KHTML, like Gecko) Chrome/125.0.0.0 Safari/537.36",WebKit,Chrome,125.0.0.0,Windows,10.0,https://app.prolific.com/,"en-US,en;q=0.9",7e9x0n,"[""exposure_4s_44.mp3""]",exposure,,exp_noresponse,,,,,,
32,,,audio-keyboard-response,32,437626,0.0-16.0-15.0,5,tonic G5,2024-05-31 10:18:57,ab8c78d7af27e364ce40308a28d3270a,209.35.84.96,"Mozilla/5.0 (Windows NT 10.0; Win64; x64) AppleWebKit/537.36 (KHTML, like Gecko) Chrome/125.0.0.0 Safari/537.36",WebKit,Chrome,125.0.0.0,Windows,10.0,https://app.prolific.com/,"en-US,en;q=0.9",7e9x0n,"[""exposure_4s_33.mp3""]",exposure,,exp_noresponse,,,,,,
33,,,audio-keyboard-response,33,460962,0.0-16.0-16.0,5,tonic G5,2024-05-31 10:18:57,ab8c78d7af27e364ce40308a28d3270a,209.35.84.96,"Mozilla/5.0 (Windows NT 10.0; Win64; x64) AppleWebKit/537.36 (KHTML, like Gecko) Chrome/125.0.0.0 Safari/537.36",WebKit,Chrome,125.0.0.0,Windows,10.0,https://app.prolific.com/,"en-US,en;q=0.9",7e9x0n,"[""exposure_4s_31.mp3""]",exposure,,exp_noresponse,,,,,,
34,10040.0,5,audio-slider-response,34,471272,0.0-16.0-17.0,5,tonic G5,2024-05-31 10:18:57,ab8c78d7af27e364ce40308a28d3270a,209.35.84.96,"Mozilla/5.0 (Windows NT 10.0; Win64; x64) AppleWebKit/537.36 (KHTML, like Gecko) Chrome/125.0.0.0 Safari/537.36",WebKit,Chrome,125.0.0.0,Windows,10.0,https://app.prolific.com/,"en-US,en;q=0.9",7e9x0n,"[""grammatical_6.mp3""]",exposure,,exp_liking,4.0,,,,,
35,7579.0,1,audio-button-response,35,478935,0.0-16.0-18.0,5,tonic G5,2024-05-31 10:18:57,ab8c78d7af27e364ce40308a28d3270a,209.35.84.96,"Mozilla/5.0 (Windows NT 10.0; Win64; x64) AppleWebKit/537.36 (KHTML, like Gecko) Chrome/125.0.0.0 Safari/537.36",WebKit,Chrome,125.0.0.0,Windows,10.0,https://app.prolific.com/,"en-US,en;q=0.9",7e9x0n,attn_length_easy_1.mp3,exposure,True,attncheck,,,,,,
36,8051.0,1,audio-button-response,36,486989,0.0-16.0-19.0,5,tonic G5,2024-05-31 10:18:57,ab8c78d7af27e364ce40308a28d3270a,209.35.84.96,"Mozilla/5.0 (Windows NT 10.0; Win64; x64) AppleWebKit/537.36 (KHTML, like Gecko) Chrome/125.0.0.0 Safari/537.36",WebKit,Chrome,125.0.0.0,Windows,10.0,https://app.prolific.com/,"en-US,en;q=0.9",7e9x0n,attn_length_int_1.mp3,exposure,True,attncheck,,,,,,
37,9789.0,1,audio-button-response,37,496785,0.0-16.0-20.0,5,tonic G5,2024-05-31 10:18:57,ab8c78d7af27e364ce40308a28d3270a,209.35.84.96,"Mozilla/5.0 (Windows NT 10.0; Win64; x64) AppleWebKit/537.36 (KHTML, like Gecko) Chrome/125.0.0.0 Safari/537.36",WebKit,Chrome,125.0.0.0,Windows,10.0,https://app.prolific.com/,"en-US,en;q=0.9",7e9x0n,attn_length_easy_1.mp3,exposure,True,attncheck,,,,,,
38,8611.0,1,audio-button-response,38,505399,0.0-16.0-21.0,5,tonic G5,2024-05-31 10:18:57,ab8c78d7af27e364ce40308a28d3270a,209.35.84.96,"Mozilla/5.0 (Windows NT 10.0; Win64; x64) AppleWebKit/537.36 (KHTML, like Gecko) Chrome/125.0.0.0 Safari/537.36",WebKit,Chrome,125.0.0.0,Windows,10.0,https://app.prolific.com/,"en-US,en;q=0.9",7e9x0n,attn_length_easy_1.mp3,exposure,True,attncheck,,,,,,
39,,,audio-keyboard-response,39,528408,0.0-16.0-22.0,5,tonic G5,2024-05-31 10:18:57,ab8c78d7af27e364ce40308a28d3270a,209.35.84.96,"Mozilla/5.0 (Windows NT 10.0; Win64; x64) AppleWebKit/537.36 (KHTML, like Gecko) Chrome/125.0.0.0 Safari/537.36",WebKit,Chrome,125.0.0.0,Windows,10.0,https://app.prolific.com/,"en-US,en;q=0.9",7e9x0n,"[""exposure_4s_27.mp3""]",exposure,,exp_noresponse,,,,,,
40,,,audio-keyboard-response,40,551571,0.0-16.0-23.0,5,tonic G5,2024-05-31 10:18:57,ab8c78d7af27e364ce40308a28d3270a,209.35.84.96,"Mozilla/5.0 (Windows NT 10.0; Win64; x64) AppleWebKit/537.36 (KHTML, like Gecko) Chrome/125.0.0.0 Safari/537.36",WebKit,Chrome,125.0.0.0,Windows,10.0,https://app.prolific.com/,"en-US,en;q=0.9",7e9x0n,"[""exposure_4s_37.mp3""]",exposure,,exp_noresponse,,,,,,
41,,,audio-keyboard-response,41,574728,0.0-16.0-24.0,5,tonic G5,2024-05-31 10:18:57,ab8c78d7af27e364ce40308a28d3270a,209.35.84.96,"Mozilla/5.0 (Windows NT 10.0; Win64; x64) AppleWebKit/537.36 (KHTML, like Gecko) Chrome/125.0.0.0 Safari/537.36",WebKit,Chrome,125.0.0.0,Windows,10.0,https://app.prolific.com/,"en-US,en;q=0.9",7e9x0n,"[""exposure_4s_6.mp3""]",exposure,,exp_noresponse,,,,,,
42,9771.0,1,audio-button-response,42,584504,0.0-16.0-25.0,5,tonic G5,2024-05-31 10:18:57,ab8c78d7af27e364ce40308a28d3270a,209.35.84.96,"Mozilla/5.0 (Windows NT 10.0; Win64; x64) AppleWebKit/537.36 (KHTML, like Gecko) Chrome/125.0.0.0 Safari/537.36",WebKit,Chrome,125.0.0.0,Windows,10.0,https://app.prolific.com/,"en-US,en;q=0.9",7e9x0n,attn_length_easy_1.mp3,exposure,True,attncheck,,,,,,
43,,,audio-keyboard-response,43,607850,0.0-16.0-26.0,5,tonic G5,2024-05-31 10:18:57,ab8c78d7af27e364ce40308a28d3270a,209.35.84.96,"Mozilla/5.0 (Windows NT 10.0; Win64; x64) AppleWebKit/537.36 (KHTML, like Gecko) Chrome/125.0.0.0 Safari/537.36",WebKit,Chrome,125.0.0.0,Windows,10.0,https://app.prolific.com/,"en-US,en;q=0.9",7e9x0n,"[""exposure_4s_12.mp3""]",exposure,,exp_noresponse,,,,,,
44,9520.0,1,audio-button-response,44,617367,0.0-16.0-27.0,5,tonic G5,2024-05-31 10:18:57,ab8c78d7af27e364ce40308a28d3270a,209.35.84.96,"Mozilla/5.0 (Windows NT 10.0; Win64; x64) AppleWebKit/537.36 (KHTML, like Gecko) Chrome/125.0.0.0 Safari/537.36",WebKit,Chrome,125.0.0.0,Windows,10.0,https://app.prolific.com/,"en-US,en;q=0.9",7e9x0n,attn_length_easy_1.mp3,exposure,True,attncheck,,,,,,
45,9251.0,1,audio-button-response,45,626619,0.0-16.0-28.0,5,tonic G5,2024-05-31 10:18:57,ab8c78d7af27e364ce40308a28d3270a,209.35.84.96,"Mozilla/5.0 (Windows NT 10.0; Win64; x64) AppleWebKit/537.36 (KHTML, like Gecko) Chrome/125.0.0.0 Safari/537.36",WebKit,Chrome,125.0.0.0,Windows,10.0,https://app.prolific.com/,"en-US,en;q=0.9",7e9x0n,attn_length_easy_1.mp3,exposure,True,attncheck,,,,,,
46,,,audio-keyboard-response,46,649633,0.0-16.0-29.0,5,tonic G5,2024-05-31 10:18:57,ab8c78d7af27e364ce40308a28d3270a,209.35.84.96,"Mozilla/5.0 (Windows NT 10.0; Win64; x64) AppleWebKit/537.36 (KHTML, like Gecko) Chrome/125.0.0.0 Safari/537.36",WebKit,Chrome,125.0.0.0,Windows,10.0,https://app.prolific.com/,"en-US,en;q=0.9",7e9x0n,"[""exposure_4s_44.mp3""]",exposure,,exp_noresponse,,,,,,
47,,,audio-keyboard-response,47,672970,0.0-16.0-30.0,5,tonic G5,2024-05-31 10:18:57,ab8c78d7af27e364ce40308a28d3270a,209.35.84.96,"Mozilla/5.0 (Windows NT 10.0; Win64; x64) AppleWebKit/537.36 (KHTML, like Gecko) Chrome/125.0.0.0 Safari/537.36",WebKit,Chrome,125.0.0.0,Windows,10.0,https://app.prolific.com/,"en-US,en;q=0.9",7e9x0n,"[""exposure_4s_32.mp3""]",exposure,,exp_noresponse,,,,,,
48,,,audio-keyboard-response,48,695981,0.0-16.0-31.0,5,tonic G5,2024-05-31 10:18:57,ab8c78d7af27e364ce40308a28d3270a,209.35.84.96,"Mozilla/5.0 (Windows NT 10.0; Win64; x64) AppleWebKit/537.36 (KHTML, like Gecko) Chrome/125.0.0.0 Safari/537.36",WebKit,Chrome,125.0.0.0,Windows,10.0,https://app.prolific.com/,"en-US,en;q=0.9",7e9x0n,"[""exposure_4s_31.mp3""]",exposure,,exp_noresponse,,,,,,
49,8509.0,1,audio-button-response,49,704487,0.0-16.0-32.0,5,tonic G5,2024-05-31 10:18:57,ab8c78d7af27e364ce40308a28d3270a,209.35.84.96,"Mozilla/5.0 (Windows NT 10.0; Win64; x64) AppleWebKit/537.36 (KHTML, like Gecko) Chrome/125.0.0.0 Safari/537.36",WebKit,Chrome,125.0.0.0,Windows,10.0,https://app.prolific.com/,"en-US,en;q=0.9",7e9x0n,attn_length_easy_1.mp3,exposure,True,attncheck,,,,,,
50,,,audio-keyboard-response,50,727490,0.0-16.0-33.0,5,tonic G5,2024-05-31 10:18:57,ab8c78d7af27e364ce40308a28d3270a,209.35.84.96,"Mozilla/5.0 (Windows NT 10.0; Win64; x64) AppleWebKit/537.36 (KHTML, like Gecko) Chrome/125.0.0.0 Safari/537.36",WebKit,Chrome,125.0.0.0,Windows,10.0,https://app.prolific.com/,"en-US,en;q=0.9",7e9x0n,"[""exposure_4s_16.mp3""]",exposure,,exp_noresponse,,,,,,
51,,,audio-keyboard-response,51,750851,0.0-16.0-34.0,5,tonic G5,2024-05-31 10:18:57,ab8c78d7af27e364ce40308a28d3270a,209.35.84.96,"Mozilla/5.0 (Windows NT 10.0; Win64; x64) AppleWebKit/537.36 (KHTML, like Gecko) Chrome/125.0.0.0 Safari/537.36",WebKit,Chrome,125.0.0.0,Windows,10.0,https://app.prolific.com/,"en-US,en;q=0.9",7e9x0n,"[""exposure_4s_26.mp3""]",exposure,,exp_noresponse,,,,,,
52,,,audio-keyboard-response,52,774008,0.0-16.0-35.0,5,tonic G5,2024-05-31 10:18:57,ab8c78d7af27e364ce40308a28d3270a,209.35.84.96,"Mozilla/5.0 (Windows NT 10.0; Win64; x64) AppleWebKit/537.36 (KHTML, like Gecko) Chrome/125.0.0.0 Safari/537.36",WebKit,Chrome,125.0.0.0,Windows,10.0,https://app.prolific.com/,"en-US,en;q=0.9",7e9x0n,"[""exposure_4s_41.mp3""]",exposure,,exp_noresponse,,,,,,
53,43440.0,5,audio-slider-response,53,817440,0.0-16.0-36.0,5,tonic G5,2024-05-31 10:18:57,ab8c78d7af27e364ce40308a28d3270a,209.35.84.96,"Mozilla/5.0 (Windows NT 10.0; Win64; x64) AppleWebKit/537.36 (KHTML, like Gecko) Chrome/125.0.0.0 Safari/537.36",WebKit,Chrome,125.0.0.0,Windows,10.0,https://app.prolific.com/,"en-US,en;q=0.9",7e9x0n,"[""grammatical_1.mp3""]",exposure,,exp_liking,4.0,,,,,
54,8491.0,1,audio-button-response,54,826470,0.0-16.0-37.0,5,tonic G5,2024-05-31 10:18:57,ab8c78d7af27e364ce40308a28d3270a,209.35.84.96,"Mozilla/5.0 (Windows NT 10.0; Win64; x64) AppleWebKit/537.36 (KHTML, like Gecko) Chrome/125.0.0.0 Safari/537.36",WebKit,Chrome,125.0.0.0,Windows,10.0,https://app.prolific.com/,"en-US,en;q=0.9",7e9x0n,attn_length_easy_1.mp3,exposure,True,attncheck,,,,,,
55,,,audio-keyboard-response,55,849852,0.0-16.0-38.0,5,tonic G5,2024-05-31 10:18:57,ab8c78d7af27e364ce40308a28d3270a,209.35.84.96,"Mozilla/5.0 (Windows NT 10.0; Win64; x64) AppleWebKit/537.36 (KHTML, like Gecko) Chrome/125.0.0.0 Safari/537.36",WebKit,Chrome,125.0.0.0,Windows,10.0,https://app.prolific.com/,"en-US,en;q=0.9",7e9x0n,"[""exposure_4s_42.mp3""]",exposure,,exp_noresponse,,,,,,
56,,,audio-keyboard-response,56,872866,0.0-16.0-39.0,5,tonic G5,2024-05-31 10:18:57,ab8c78d7af27e364ce40308a28d3270a,209.35.84.96,"Mozilla/5.0 (Windows NT 10.0; Win64; x64) AppleWebKit/537.36 (KHTML, like Gecko) Chrome/125.0.0.0 Safari/537.36",WebKit,Chrome,125.0.0.0,Windows,10.0,https://app.prolific.com/,"en-US,en;q=0.9",7e9x0n,"[""exposure_4s_6.mp3""]",exposure,,exp_noresponse,,,,,,
57,,,audio-keyboard-response,57,895880,0.0-16.0-40.0,5,tonic G5,2024-05-31 10:18:57,ab8c78d7af27e364ce40308a28d3270a,209.35.84.96,"Mozilla/5.0 (Windows NT 10.0; Win64; x64) AppleWebKit/537.36 (KHTML, like Gecko) Chrome/125.0.0.0 Safari/537.36",WebKit,Chrome,125.0.0.0,Windows,10.0,https://app.prolific.com/,"en-US,en;q=0.9",7e9x0n,"[""exposure_4s_2.mp3""]",exposure,,exp_noresponse,,,,,,
58,,,audio-keyboard-response,58,919210,0.0-16.0-41.0,5,tonic G5,2024-05-31 10:18:57,ab8c78d7af27e364ce40308a28d3270a,209.35.84.96,"Mozilla/5.0 (Windows NT 10.0; Win64; x64) AppleWebKit/537.36 (KHTML, like Gecko) Chrome/125.0.0.0 Safari/537.36",WebKit,Chrome,125.0.0.0,Windows,10.0,https://app.prolific.com/,"en-US,en;q=0.9",7e9x0n,"[""exposure_4s_15.mp3""]",exposure,,exp_noresponse,,,,,,
59,,,audio-keyboard-response,59,942521,0.0-16.0-42.0,5,tonic G5,2024-05-31 10:18:57,ab8c78d7af27e364ce40308a28d3270a,209.35.84.96,"Mozilla/5.0 (Windows NT 10.0; Win64; x64) AppleWebKit/537.36 (KHTML, like Gecko) Chrome/125.0.0.0 Safari/537.36",WebKit,Chrome,125.0.0.0,Windows,10.0,https://app.prolific.com/,"en-US,en;q=0.9",7e9x0n,"[""exposure_4s_28.mp3""]",exposure,,exp_noresponse,,,,,,
60,,,audio-keyboard-response,60,965849,0.0-16.0-43.0,5,tonic G5,2024-05-31 10:18:57,ab8c78d7af27e364ce40308a28d3270a,209.35.84.96,"Mozilla/5.0 (Windows NT 10.0; Win64; x64) AppleWebKit/537.36 (KHTML, like Gecko) Chrome/125.0.0.0 Safari/537.36",WebKit,Chrome,125.0.0.0,Windows,10.0,https://app.prolific.com/,"en-US,en;q=0.9",7e9x0n,"[""exposure_4s_17.mp3""]",exposure,,exp_noresponse,,,,,,
61,,,audio-keyboard-response,61,989187,0.0-16.0-44.0,5,tonic G5,2024-05-31 10:18:57,ab8c78d7af27e364ce40308a28d3270a,209.35.84.96,"Mozilla/5.0 (Windows NT 10.0; Win64; x64) AppleWebKit/537.36 (KHTML, like Gecko) Chrome/125.0.0.0 Safari/537.36",WebKit,Chrome,125.0.0.0,Windows,10.0,https://app.prolific.com/,"en-US,en;q=0.9",7e9x0n,"[""exposure_4s_1.mp3""]",exposure,,exp_noresponse,,,,,,
62,,,audio-keyboard-response,62,1012201,0.0-16.0-45.0,5,tonic G5,2024-05-31 10:18:57,ab8c78d7af27e364ce40308a28d3270a,209.35.84.96,"Mozilla/5.0 (Windows NT 10.0; Win64; x64) AppleWebKit/537.36 (KHTML, like Gecko) Chrome/125.0.0.0 Safari/537.36",WebKit,Chrome,125.0.0.0,Windows,10.0,https://app.prolific.com/,"en-US,en;q=0.9",7e9x0n,"[""exposure_4s_8.mp3""]",exposure,,exp_noresponse,,,,,,
63,,,audio-keyboard-response,63,1035206,0.0-16.0-46.0,5,tonic G5,2024-05-31 10:18:57,ab8c78d7af27e364ce40308a28d3270a,209.35.84.96,"Mozilla/5.0 (Windows NT 10.0; Win64; x64) AppleWebKit/537.36 (KHTML, like Gecko) Chrome/125.0.0.0 Safari/537.36",WebKit,Chrome,125.0.0.0,Windows,10.0,https://app.prolific.com/,"en-US,en;q=0.9",7e9x0n,"[""exposure_4s_17.mp3""]",exposure,,exp_noresponse,,,,,,
64,7600.0,1,audio-button-response,64,1042808,0.0-16.0-47.0,5,tonic G5,2024-05-31 10:18:57,ab8c78d7af27e364ce40308a28d3270a,209.35.84.96,"Mozilla/5.0 (Windows NT 10.0; Win64; x64) AppleWebKit/537.36 (KHTML, like Gecko) Chrome/125.0.0.0 Safari/537.36",WebKit,Chrome,125.0.0.0,Windows,10.0,https://app.prolific.com/,"en-US,en;q=0.9",7e9x0n,attn_length_int_1.mp3,exposure,True,attncheck,,,,,,
65,,,audio-keyboard-response,65,1066158,0.0-16.0-48.0,5,tonic G5,2024-05-31 10:18:57,ab8c78d7af27e364ce40308a28d3270a,209.35.84.96,"Mozilla/5.0 (Windows NT 10.0; Win64; x64) AppleWebKit/537.36 (KHTML, like Gecko) Chrome/125.0.0.0 Safari/537.36",WebKit,Chrome,125.0.0.0,Windows,10.0,https://app.prolific.com/,"en-US,en;q=0.9",7e9x0n,"[""exposure_4s_10.mp3""]",exposure,,exp_noresponse,,,,,,
66,15229.0,1,audio-button-response,66,1081388,0.0-16.0-49.0,5,tonic G5,2024-05-31 10:18:57,ab8c78d7af27e364ce40308a28d3270a,209.35.84.96,"Mozilla/5.0 (Windows NT 10.0; Win64; x64) AppleWebKit/537.36 (KHTML, like Gecko) Chrome/125.0.0.0 Safari/537.36",WebKit,Chrome,125.0.0.0,Windows,10.0,https://app.prolific.com/,"en-US,en;q=0.9",7e9x0n,attn_length_easy_1.mp3,exposure,True,attncheck,,,,,,
67,,,audio-keyboard-response,67,1104404,0.0-16.0-50.0,5,tonic G5,2024-05-31 10:18:57,ab8c78d7af27e364ce40308a28d3270a,209.35.84.96,"Mozilla/5.0 (Windows NT 10.0; Win64; x64) AppleWebKit/537.36 (KHTML, like Gecko) Chrome/125.0.0.0 Safari/537.36",WebKit,Chrome,125.0.0.0,Windows,10.0,https://app.prolific.com/,"en-US,en;q=0.9",7e9x0n,"[""exposure_4s_32.mp3""]",exposure,,exp_noresponse,,,,,,
68,,,audio-keyboard-response,68,1127568,0.0-16.0-51.0,5,tonic G5,2024-05-31 10:18:57,ab8c78d7af27e364ce40308a28d3270a,209.35.84.96,"Mozilla/5.0 (Windows NT 10.0; Win64; x64) AppleWebKit/537.36 (KHTML, like Gecko) Chrome/125.0.0.0 Safari/537.36",WebKit,Chrome,125.0.0.0,Windows,10.0,https://app.prolific.com/,"en-US,en;q=0.9",7e9x0n,"[""exposure_4s_36.mp3""]",exposure,,exp_noresponse,,,,,,
69,,,audio-keyboard-response,69,1150585,0.0-16.0-52.0,5,tonic G5,2024-05-31 10:18:57,ab8c78d7af27e364ce40308a28d3270a,209.35.84.96,"Mozilla/5.0 (Windows NT 10.0; Win64; x64) AppleWebKit/537.36 (KHTML, like Gecko) Chrome/125.0.0.0 Safari/537.36",WebKit,Chrome,125.0.0.0,Windows,10.0,https://app.prolific.com/,"en-US,en;q=0.9",7e9x0n,"[""exposure_4s_37.mp3""]",exposure,,exp_noresponse,,,,,,
70,,,audio-keyboard-response,70,1173593,0.0-16.0-53.0,5,tonic G5,2024-05-31 10:18:57,ab8c78d7af27e364ce40308a28d3270a,209.35.84.96,"Mozilla/5.0 (Windows NT 10.0; Win64; x64) AppleWebKit/537.36 (KHTML, like Gecko) Chrome/125.0.0.0 Safari/537.36",WebKit,Chrome,125.0.0.0,Windows,10.0,https://app.prolific.com/,"en-US,en;q=0.9",7e9x0n,"[""exposure_4s_12.mp3""]",exposure,,exp_noresponse,,,,,,
71,,,audio-keyboard-response,71,1196597,0.0-16.0-54.0,5,tonic G5,2024-05-31 10:18:57,ab8c78d7af27e364ce40308a28d3270a,209.35.84.96,"Mozilla/5.0 (Windows NT 10.0; Win64; x64) AppleWebKit/537.36 (KHTML, like Gecko) Chrome/125.0.0.0 Safari/537.36",WebKit,Chrome,125.0.0.0,Windows,10.0,https://app.prolific.com/,"en-US,en;q=0.9",7e9x0n,"[""exposure_4s_42.mp3""]",exposure,,exp_noresponse,,,,,,
72,8939.0,1,audio-button-response,72,1205539,0.0-16.0-55.0,5,tonic G5,2024-05-31 10:18:57,ab8c78d7af27e364ce40308a28d3270a,209.35.84.96,"Mozilla/5.0 (Windows NT 10.0; Win64; x64) AppleWebKit/537.36 (KHTML, like Gecko) Chrome/125.0.0.0 Safari/537.36",WebKit,Chrome,125.0.0.0,Windows,10.0,https://app.prolific.com/,"en-US,en;q=0.9",7e9x0n,attn_length_int_1.mp3,exposure,True,attncheck,,,,,,
73,,,audio-keyboard-response,73,1228692,0.0-16.0-56.0,5,tonic G5,2024-05-31 10:18:57,ab8c78d7af27e364ce40308a28d3270a,209.35.84.96,"Mozilla/5.0 (Windows NT 10.0; Win64; x64) AppleWebKit/537.36 (KHTML, like Gecko) Chrome/125.0.0.0 Safari/537.36",WebKit,Chrome,125.0.0.0,Windows,10.0,https://app.prolific.com/,"en-US,en;q=0.9",7e9x0n,"[""exposure_4s_29.mp3""]",exposure,,exp_noresponse,,,,,,
74,4840.0,5,audio-slider-response,74,1233760,0.0-16.0-57.0,5,tonic G5,2024-05-31 10:18:57,ab8c78d7af27e364ce40308a28d3270a,209.35.84.96,"Mozilla/5.0 (Windows NT 10.0; Win64; x64) AppleWebKit/537.36 (KHTML, like Gecko) Chrome/125.0.0.0 Safari/537.36",WebKit,Chrome,125.0.0.0,Windows,10.0,https://app.prolific.com/,"en-US,en;q=0.9",7e9x0n,"[""grammatical_7.mp3""]",exposure,,exp_liking,4.0,,,,,
75,,,audio-keyboard-response,75,1256769,0.0-16.0-58.0,5,tonic G5,2024-05-31 10:18:57,ab8c78d7af27e364ce40308a28d3270a,209.35.84.96,"Mozilla/5.0 (Windows NT 10.0; Win64; x64) AppleWebKit/537.36 (KHTML, like Gecko) Chrome/125.0.0.0 Safari/537.36",WebKit,Chrome,125.0.0.0,Windows,10.0,https://app.prolific.com/,"en-US,en;q=0.9",7e9x0n,"[""exposure_4s_28.mp3""]",exposure,,exp_noresponse,,,,,,
76,8709.0,1,audio-button-response,76,1265479,0.0-16.0-59.0,5,tonic G5,2024-05-31 10:18:57,ab8c78d7af27e364ce40308a28d3270a,209.35.84.96,"Mozilla/5.0 (Windows NT 10.0; Win64; x64) AppleWebKit/537.36 (KHTML, like Gecko) Chrome/125.0.0.0 Safari/537.36",WebKit,Chrome,125.0.0.0,Windows,10.0,https://app.prolific.com/,"en-US,en;q=0.9",7e9x0n,attn_length_int_1.mp3,exposure,True,attncheck,,,,,,
77,5872.0, ,html-keyboard-response,77,1271353,0.0-17.0,5,tonic G5,2024-05-31 10:18:57,ab8c78d7af27e364ce40308a28d3270a,209.35.84.96,"Mozilla/5.0 (Windows NT 10.0; Win64; x64) AppleWebKit/537.36 (KHTML, like Gecko) Chrome/125.0.0.0 Safari/537.36",WebKit,Chrome,125.0.0.0,Windows,10.0,https://app.prolific.com/,"en-US,en;q=0.9",7e9x0n,"<p>You will now be asked to judge how similar some melodies are to what you have
    just listened to. </p>
    <p><b>Press the space bar to continue.</b></p>",,,,,,,,,
78,4149.0, ,html-keyboard-response,78,1275504,0.0-18.0,5,tonic G5,2024-05-31 10:18:57,ab8c78d7af27e364ce40308a28d3270a,209.35.84.96,"Mozilla/5.0 (Windows NT 10.0; Win64; x64) AppleWebKit/537.36 (KHTML, like Gecko) Chrome/125.0.0.0 Safari/537.36",WebKit,Chrome,125.0.0.0,Windows,10.0,https://app.prolific.com/,"en-US,en;q=0.9",7e9x0n,"<p>The changes in the melodies are subtle. If you are not sure, go with your gut feeling.</p>
    <p><b>Press the space bar to continue.</b></p>",,,,,,,,,
79,13920.0,6,audio-slider-response,79,1289433,0.0-19.0-0.0,5,tonic G5,2024-05-31 10:18:57,ab8c78d7af27e364ce40308a28d3270a,209.35.84.96,"Mozilla/5.0 (Windows NT 10.0; Win64; x64) AppleWebKit/537.36 (KHTML, like Gecko) Chrome/125.0.0.0 Safari/537.36",WebKit,Chrome,125.0.0.0,Windows,10.0,https://app.prolific.com/,"en-US,en;q=0.9",7e9x0n,grammatical_1.mp3,grammar_learning,,,4.0,,,,,
80,5808.0,5,audio-slider-response,80,1295501,0.0-19.0-0.1,5,tonic G5,2024-05-31 10:18:57,ab8c78d7af27e364ce40308a28d3270a,209.35.84.96,"Mozilla/5.0 (Windows NT 10.0; Win64; x64) AppleWebKit/537.36 (KHTML, like Gecko) Chrome/125.0.0.0 Safari/537.36",WebKit,Chrome,125.0.0.0,Windows,10.0,https://app.prolific.com/,"en-US,en;q=0.9",7e9x0n,agrammatical_3.mp3,grammar_learning,,,4.0,,,,,
81,6469.0,6,audio-slider-response,81,1302219,0.0-19.0-0.2,5,tonic G5,2024-05-31 10:18:57,ab8c78d7af27e364ce40308a28d3270a,209.35.84.96,"Mozilla/5.0 (Windows NT 10.0; Win64; x64) AppleWebKit/537.36 (KHTML, like Gecko) Chrome/125.0.0.0 Safari/537.36",WebKit,Chrome,125.0.0.0,Windows,10.0,https://app.prolific.com/,"en-US,en;q=0.9",7e9x0n,grammatical_2.mp3,grammar_learning,,,4.0,,,,,
82,8440.0,4,audio-slider-response,82,1310930,0.0-19.0-0.3,5,tonic G5,2024-05-31 10:18:57,ab8c78d7af27e364ce40308a28d3270a,209.35.84.96,"Mozilla/5.0 (Windows NT 10.0; Win64; x64) AppleWebKit/537.36 (KHTML, like Gecko) Chrome/125.0.0.0 Safari/537.36",WebKit,Chrome,125.0.0.0,Windows,10.0,https://app.prolific.com/,"en-US,en;q=0.9",7e9x0n,agrammatical_4.mp3,grammar_learning,,,4.0,,,,,
83,4931.0,7,audio-slider-response,83,1315863,0.0-19.0-0.4,5,tonic G5,2024-05-31 10:18:57,ab8c78d7af27e364ce40308a28d3270a,209.35.84.96,"Mozilla/5.0 (Windows NT 10.0; Win64; x64) AppleWebKit/537.36 (KHTML, like Gecko) Chrome/125.0.0.0 Safari/537.36",WebKit,Chrome,125.0.0.0,Windows,10.0,https://app.prolific.com/,"en-US,en;q=0.9",7e9x0n,grammatical_6.mp3,grammar_learning,,,4.0,,,,,
84,7651.0,5,audio-slider-response,84,1323751,0.0-19.0-0.5,5,tonic G5,2024-05-31 10:18:57,ab8c78d7af27e364ce40308a28d3270a,209.35.84.96,"Mozilla/5.0 (Windows NT 10.0; Win64; x64) AppleWebKit/537.36 (KHTML, like Gecko) Chrome/125.0.0.0 Safari/537.36",WebKit,Chrome,125.0.0.0,Windows,10.0,https://app.prolific.com/,"en-US,en;q=0.9",7e9x0n,agrammatical_7.mp3,grammar_learning,,,4.0,,,,,
85,5189.0,5,audio-slider-response,85,1329278,0.0-19.0-0.6,5,tonic G5,2024-05-31 10:18:57,ab8c78d7af27e364ce40308a28d3270a,209.35.84.96,"Mozilla/5.0 (Windows NT 10.0; Win64; x64) AppleWebKit/537.36 (KHTML, like Gecko) Chrome/125.0.0.0 Safari/537.36",WebKit,Chrome,125.0.0.0,Windows,10.0,https://app.prolific.com/,"en-US,en;q=0.9",7e9x0n,agrammatical_6.mp3,grammar_learning,,,4.0,,,,,
86,4920.0,5,audio-slider-response,86,1334451,0.0-19.0-0.7,5,tonic G5,2024-05-31 10:18:57,ab8c78d7af27e364ce40308a28d3270a,209.35.84.96,"Mozilla/5.0 (Windows NT 10.0; Win64; x64) AppleWebKit/537.36 (KHTML, like Gecko) Chrome/125.0.0.0 Safari/537.36",WebKit,Chrome,125.0.0.0,Windows,10.0,https://app.prolific.com/,"en-US,en;q=0.9",7e9x0n,agrammatical_8.mp3,grammar_learning,,,4.0,,,,,
87,6069.0,6,audio-slider-response,87,1340744,0.0-19.0-0.8,5,tonic G5,2024-05-31 10:18:57,ab8c78d7af27e364ce40308a28d3270a,209.35.84.96,"Mozilla/5.0 (Windows NT 10.0; Win64; x64) AppleWebKit/537.36 (KHTML, like Gecko) Chrome/125.0.0.0 Safari/537.36",WebKit,Chrome,125.0.0.0,Windows,10.0,https://app.prolific.com/,"en-US,en;q=0.9",7e9x0n,grammatical_3.mp3,grammar_learning,,,4.0,,,,,
88,4949.0,6,audio-slider-response,88,1345694,0.0-19.0-0.9,5,tonic G5,2024-05-31 10:18:57,ab8c78d7af27e364ce40308a28d3270a,209.35.84.96,"Mozilla/5.0 (Windows NT 10.0; Win64; x64) AppleWebKit/537.36 (KHTML, like Gecko) Chrome/125.0.0.0 Safari/537.36",WebKit,Chrome,125.0.0.0,Windows,10.0,https://app.prolific.com/,"en-US,en;q=0.9",7e9x0n,grammatical_7.mp3,grammar_learning,,,4.0,,,,,
89,5029.0,5,audio-slider-response,89,1350949,0.0-19.0-0.10,5,tonic G5,2024-05-31 10:18:57,ab8c78d7af27e364ce40308a28d3270a,209.35.84.96,"Mozilla/5.0 (Windows NT 10.0; Win64; x64) AppleWebKit/537.36 (KHTML, like Gecko) Chrome/125.0.0.0 Safari/537.36",WebKit,Chrome,125.0.0.0,Windows,10.0,https://app.prolific.com/,"en-US,en;q=0.9",7e9x0n,agrammatical_5.mp3,grammar_learning,,,4.0,,,,,
90,10560.0,5,audio-slider-response,90,1361723,0.0-19.0-0.11,5,tonic G5,2024-05-31 10:18:57,ab8c78d7af27e364ce40308a28d3270a,209.35.84.96,"Mozilla/5.0 (Windows NT 10.0; Win64; x64) AppleWebKit/537.36 (KHTML, like Gecko) Chrome/125.0.0.0 Safari/537.36",WebKit,Chrome,125.0.0.0,Windows,10.0,https://app.prolific.com/,"en-US,en;q=0.9",7e9x0n,grammatical_8.mp3,grammar_learning,,,4.0,,,,,
91,5301.0,5,audio-slider-response,91,1367082,0.0-19.0-0.12,5,tonic G5,2024-05-31 10:18:57,ab8c78d7af27e364ce40308a28d3270a,209.35.84.96,"Mozilla/5.0 (Windows NT 10.0; Win64; x64) AppleWebKit/537.36 (KHTML, like Gecko) Chrome/125.0.0.0 Safari/537.36",WebKit,Chrome,125.0.0.0,Windows,10.0,https://app.prolific.com/,"en-US,en;q=0.9",7e9x0n,grammatical_5.mp3,grammar_learning,,,4.0,,,,,
92,6259.0,5,audio-slider-response,92,1373668,0.0-19.0-0.13,5,tonic G5,2024-05-31 10:18:57,ab8c78d7af27e364ce40308a28d3270a,209.35.84.96,"Mozilla/5.0 (Windows NT 10.0; Win64; x64) AppleWebKit/537.36 (KHTML, like Gecko) Chrome/125.0.0.0 Safari/537.36",WebKit,Chrome,125.0.0.0,Windows,10.0,https://app.prolific.com/,"en-US,en;q=0.9",7e9x0n,grammatical_4.mp3,grammar_learning,,,4.0,,,,,
93,4371.0,4,audio-slider-response,93,1378387,0.0-19.0-0.14,5,tonic G5,2024-05-31 10:18:57,ab8c78d7af27e364ce40308a28d3270a,209.35.84.96,"Mozilla/5.0 (Windows NT 10.0; Win64; x64) AppleWebKit/537.36 (KHTML, like Gecko) Chrome/125.0.0.0 Safari/537.36",WebKit,Chrome,125.0.0.0,Windows,10.0,https://app.prolific.com/,"en-US,en;q=0.9",7e9x0n,agrammatical_2.mp3,grammar_learning,,,4.0,,,,,
94,4891.0,5,audio-slider-response,94,1383491,0.0-19.0-0.15,5,tonic G5,2024-05-31 10:18:57,ab8c78d7af27e364ce40308a28d3270a,209.35.84.96,"Mozilla/5.0 (Windows NT 10.0; Win64; x64) AppleWebKit/537.36 (KHTML, like Gecko) Chrome/125.0.0.0 Safari/537.36",WebKit,Chrome,125.0.0.0,Windows,10.0,https://app.prolific.com/,"en-US,en;q=0.9",7e9x0n,agrammatical_1.mp3,grammar_learning,,,4.0,,,,,
95,39282.0,"{""prolific_id"":""I listened to for note changes and accents that differed from the melody""}",survey-html-form,95,1422775,0.0-20.0,5,tonic G5,2024-05-31 10:18:57,ab8c78d7af27e364ce40308a28d3270a,209.35.84.96,"Mozilla/5.0 (Windows NT 10.0; Win64; x64) AppleWebKit/537.36 (KHTML, like Gecko) Chrome/125.0.0.0 Safari/537.36",WebKit,Chrome,125.0.0.0,Windows,10.0,https://app.prolific.com/,"en-US,en;q=0.9",7e9x0n,,,,,,,,,,
96,3225.0, ,html-keyboard-response,96,1426002,0.0-21.0,5,tonic G5,2024-05-31 10:18:57,ab8c78d7af27e364ce40308a28d3270a,209.35.84.96,"Mozilla/5.0 (Windows NT 10.0; Win64; x64) AppleWebKit/537.36 (KHTML, like Gecko) Chrome/125.0.0.0 Safari/537.36",WebKit,Chrome,125.0.0.0,Windows,10.0,https://app.prolific.com/,"en-US,en;q=0.9",7e9x0n,"<p>In this part of the experiment, you will presented with two melodies in succession. 
    <p><b>Press the space bar to continue.</b></p>",,,,,,,,,
97,3761.0, ,html-keyboard-response,97,1429764,0.0-22.0,5,tonic G5,2024-05-31 10:18:57,ab8c78d7af27e364ce40308a28d3270a,209.35.84.96,"Mozilla/5.0 (Windows NT 10.0; Win64; x64) AppleWebKit/537.36 (KHTML, like Gecko) Chrome/125.0.0.0 Safari/537.36",WebKit,Chrome,125.0.0.0,Windows,10.0,https://app.prolific.com/,"en-US,en;q=0.9",7e9x0n,"<p>The melodies are nearly identical, but have either an added accent or one different note. </p>
    <p><b>Press the space bar to continue.</b></p>",,,,,,,,,
98,1886.0, ,html-keyboard-response,98,1431652,0.0-23.0,5,tonic G5,2024-05-31 10:18:57,ab8c78d7af27e364ce40308a28d3270a,209.35.84.96,"Mozilla/5.0 (Windows NT 10.0; Win64; x64) AppleWebKit/537.36 (KHTML, like Gecko) Chrome/125.0.0.0 Safari/537.36",WebKit,Chrome,125.0.0.0,Windows,10.0,https://app.prolific.com/,"en-US,en;q=0.9",7e9x0n,"<p>    Please choose the melody that <b>sounds better to you.</b></p>
    <p><b>Press the space bar to continue.</b></p>",,,,,,,,,
99,1756.0, ,html-keyboard-response,99,1433409,0.0-24.0,5,tonic G5,2024-05-31 10:18:57,ab8c78d7af27e364ce40308a28d3270a,209.35.84.96,"Mozilla/5.0 (Windows NT 10.0; Win64; x64) AppleWebKit/537.36 (KHTML, like Gecko) Chrome/125.0.0.0 Safari/537.36",WebKit,Chrome,125.0.0.0,Windows,10.0,https://app.prolific.com/,"en-US,en;q=0.9",7e9x0n,There are <b>32 questions</b> in this section.,,,,,,,,,
100,7091.0,f,audio-keyboard-response,100,1441449,0.0-25.0-0.0,5,tonic G5,2024-05-31 10:18:57,ab8c78d7af27e364ce40308a28d3270a,209.35.84.96,"Mozilla/5.0 (Windows NT 10.0; Win64; x64) AppleWebKit/537.36 (KHTML, like Gecko) Chrome/125.0.0.0 Safari/537.36",WebKit,Chrome,125.0.0.0,Windows,10.0,https://app.prolific.com/,"en-US,en;q=0.9",7e9x0n,fc_accents_56_4.mp3,forced_choice,,,,j,,False,False,
101,6112.0,f,audio-keyboard-response,101,1447873,0.0-25.0-0.1,5,tonic G5,2024-05-31 10:18:57,ab8c78d7af27e364ce40308a28d3270a,209.35.84.96,"Mozilla/5.0 (Windows NT 10.0; Win64; x64) AppleWebKit/537.36 (KHTML, like Gecko) Chrome/125.0.0.0 Safari/537.36",WebKit,Chrome,125.0.0.0,Windows,10.0,https://app.prolific.com/,"en-US,en;q=0.9",7e9x0n,fc_IC_accent_5_4.mp3,forced_choice,,,,,j,False,False,
102,6549.0,f,audio-keyboard-response,102,1454694,0.0-25.0-0.2,5,tonic G5,2024-05-31 10:18:57,ab8c78d7af27e364ce40308a28d3270a,209.35.84.96,"Mozilla/5.0 (Windows NT 10.0; Win64; x64) AppleWebKit/537.36 (KHTML, like Gecko) Chrome/125.0.0.0 Safari/537.36",WebKit,Chrome,125.0.0.0,Windows,10.0,https://app.prolific.com/,"en-US,en;q=0.9",7e9x0n,fc_IC_default_5_2.mp3,forced_choice,,,,,j,False,False,
103,5949.0,j,audio-keyboard-response,103,1460854,0.0-25.0-0.3,5,tonic G5,2024-05-31 10:18:57,ab8c78d7af27e364ce40308a28d3270a,209.35.84.96,"Mozilla/5.0 (Windows NT 10.0; Win64; x64) AppleWebKit/537.36 (KHTML, like Gecko) Chrome/125.0.0.0 Safari/537.36",WebKit,Chrome,125.0.0.0,Windows,10.0,https://app.prolific.com/,"en-US,en;q=0.9",7e9x0n,fc_accents_34_1.mp3,forced_choice,,,,j,,True,False,
104,5891.0,f,audio-keyboard-response,104,1467007,0.0-25.0-0.4,5,tonic G5,2024-05-31 10:18:57,ab8c78d7af27e364ce40308a28d3270a,209.35.84.96,"Mozilla/5.0 (Windows NT 10.0; Win64; x64) AppleWebKit/537.36 (KHTML, like Gecko) Chrome/125.0.0.0 Safari/537.36",WebKit,Chrome,125.0.0.0,Windows,10.0,https://app.prolific.com/,"en-US,en;q=0.9",7e9x0n,fc_IC_accent_3_3.mp3,forced_choice,,,,,f,False,True,
105,10091.0,j,audio-keyboard-response,105,1477379,0.0-25.0-0.5,5,tonic G5,2024-05-31 10:18:57,ab8c78d7af27e364ce40308a28d3270a,209.35.84.96,"Mozilla/5.0 (Windows NT 10.0; Win64; x64) AppleWebKit/537.36 (KHTML, like Gecko) Chrome/125.0.0.0 Safari/537.36",WebKit,Chrome,125.0.0.0,Windows,10.0,https://app.prolific.com/,"en-US,en;q=0.9",7e9x0n,fc_IC_default_3_1.mp3,forced_choice,,,,,f,False,False,
106,6771.0,f,audio-keyboard-response,106,1484391,0.0-25.0-0.6,5,tonic G5,2024-05-31 10:18:57,ab8c78d7af27e364ce40308a28d3270a,209.35.84.96,"Mozilla/5.0 (Windows NT 10.0; Win64; x64) AppleWebKit/537.36 (KHTML, like Gecko) Chrome/125.0.0.0 Safari/537.36",WebKit,Chrome,125.0.0.0,Windows,10.0,https://app.prolific.com/,"en-US,en;q=0.9",7e9x0n,fc_IC_default_3_2.mp3,forced_choice,,,,,f,False,True,
107,5472.0,f,audio-keyboard-response,107,1490150,0.0-25.0-0.7,5,tonic G5,2024-05-31 10:18:57,ab8c78d7af27e364ce40308a28d3270a,209.35.84.96,"Mozilla/5.0 (Windows NT 10.0; Win64; x64) AppleWebKit/537.36 (KHTML, like Gecko) Chrome/125.0.0.0 Safari/537.36",WebKit,Chrome,125.0.0.0,Windows,10.0,https://app.prolific.com/,"en-US,en;q=0.9",7e9x0n,fc_accents_54_2.mp3,forced_choice,,,,j,,False,False,
108,5280.0,f,audio-keyboard-response,108,1495645,0.0-25.0-0.8,5,tonic G5,2024-05-31 10:18:57,ab8c78d7af27e364ce40308a28d3270a,209.35.84.96,"Mozilla/5.0 (Windows NT 10.0; Win64; x64) AppleWebKit/537.36 (KHTML, like Gecko) Chrome/125.0.0.0 Safari/537.36",WebKit,Chrome,125.0.0.0,Windows,10.0,https://app.prolific.com/,"en-US,en;q=0.9",7e9x0n,fc_IC_accent_3_2.mp3,forced_choice,,,,,f,False,True,
109,6309.0,j,audio-keyboard-response,109,1502194,0.0-25.0-0.9,5,tonic G5,2024-05-31 10:18:57,ab8c78d7af27e364ce40308a28d3270a,209.35.84.96,"Mozilla/5.0 (Windows NT 10.0; Win64; x64) AppleWebKit/537.36 (KHTML, like Gecko) Chrome/125.0.0.0 Safari/537.36",WebKit,Chrome,125.0.0.0,Windows,10.0,https://app.prolific.com/,"en-US,en;q=0.9",7e9x0n,fc_accents_54_3.mp3,forced_choice,,,,j,,True,False,
110,6149.0,j,audio-keyboard-response,110,1508579,0.0-25.0-0.10,5,tonic G5,2024-05-31 10:18:57,ab8c78d7af27e364ce40308a28d3270a,209.35.84.96,"Mozilla/5.0 (Windows NT 10.0; Win64; x64) AppleWebKit/537.36 (KHTML, like Gecko) Chrome/125.0.0.0 Safari/537.36",WebKit,Chrome,125.0.0.0,Windows,10.0,https://app.prolific.com/,"en-US,en;q=0.9",7e9x0n,fc_accents_32_4.mp3,forced_choice,,,,j,,True,False,
111,6539.0,j,audio-keyboard-response,111,1515118,0.0-25.0-0.11,5,tonic G5,2024-05-31 10:18:57,ab8c78d7af27e364ce40308a28d3270a,209.35.84.96,"Mozilla/5.0 (Windows NT 10.0; Win64; x64) AppleWebKit/537.36 (KHTML, like Gecko) Chrome/125.0.0.0 Safari/537.36",WebKit,Chrome,125.0.0.0,Windows,10.0,https://app.prolific.com/,"en-US,en;q=0.9",7e9x0n,fc_accents_54_4.mp3,forced_choice,,,,j,,True,False,
112,5021.0,f,audio-keyboard-response,112,1520379,0.0-25.0-0.12,5,tonic G5,2024-05-31 10:18:57,ab8c78d7af27e364ce40308a28d3270a,209.35.84.96,"Mozilla/5.0 (Windows NT 10.0; Win64; x64) AppleWebKit/537.36 (KHTML, like Gecko) Chrome/125.0.0.0 Safari/537.36",WebKit,Chrome,125.0.0.0,Windows,10.0,https://app.prolific.com/,"en-US,en;q=0.9",7e9x0n,fc_accents_34_2.mp3,forced_choice,,,,j,,False,False,
113,5811.0,j,audio-keyboard-response,113,1526448,0.0-25.0-0.13,5,tonic G5,2024-05-31 10:18:57,ab8c78d7af27e364ce40308a28d3270a,209.35.84.96,"Mozilla/5.0 (Windows NT 10.0; Win64; x64) AppleWebKit/537.36 (KHTML, like Gecko) Chrome/125.0.0.0 Safari/537.36",WebKit,Chrome,125.0.0.0,Windows,10.0,https://app.prolific.com/,"en-US,en;q=0.9",7e9x0n,fc_IC_accent_3_4.mp3,forced_choice,,,,,f,False,False,
114,5549.0,j,audio-keyboard-response,114,1532207,0.0-25.0-0.14,5,tonic G5,2024-05-31 10:18:57,ab8c78d7af27e364ce40308a28d3270a,209.35.84.96,"Mozilla/5.0 (Windows NT 10.0; Win64; x64) AppleWebKit/537.36 (KHTML, like Gecko) Chrome/125.0.0.0 Safari/537.36",WebKit,Chrome,125.0.0.0,Windows,10.0,https://app.prolific.com/,"en-US,en;q=0.9",7e9x0n,fc_accents_56_3.mp3,forced_choice,,,,j,,True,False,
115,5701.0,j,audio-keyboard-response,115,1538149,0.0-25.0-0.15,5,tonic G5,2024-05-31 10:18:57,ab8c78d7af27e364ce40308a28d3270a,209.35.84.96,"Mozilla/5.0 (Windows NT 10.0; Win64; x64) AppleWebKit/537.36 (KHTML, like Gecko) Chrome/125.0.0.0 Safari/537.36",WebKit,Chrome,125.0.0.0,Windows,10.0,https://app.prolific.com/,"en-US,en;q=0.9",7e9x0n,fc_accents_32_3.mp3,forced_choice,,,,j,,True,False,
116,6480.0,f,audio-keyboard-response,116,1544871,0.0-25.0-0.16,5,tonic G5,2024-05-31 10:18:57,ab8c78d7af27e364ce40308a28d3270a,209.35.84.96,"Mozilla/5.0 (Windows NT 10.0; Win64; x64) AppleWebKit/537.36 (KHTML, like Gecko) Chrome/125.0.0.0 Safari/537.36",WebKit,Chrome,125.0.0.0,Windows,10.0,https://app.prolific.com/,"en-US,en;q=0.9",7e9x0n,fc_accents_34_3.mp3,forced_choice,,,,j,,False,False,
117,6349.0,f,audio-keyboard-response,117,1551463,0.0-25.0-0.17,5,tonic G5,2024-05-31 10:18:57,ab8c78d7af27e364ce40308a28d3270a,209.35.84.96,"Mozilla/5.0 (Windows NT 10.0; Win64; x64) AppleWebKit/537.36 (KHTML, like Gecko) Chrome/125.0.0.0 Safari/537.36",WebKit,Chrome,125.0.0.0,Windows,10.0,https://app.prolific.com/,"en-US,en;q=0.9",7e9x0n,fc_accents_34_4.mp3,forced_choice,,,,j,,False,False,
118,6440.0,j,audio-keyboard-response,118,1558163,0.0-25.0-0.18,5,tonic G5,2024-05-31 10:18:57,ab8c78d7af27e364ce40308a28d3270a,209.35.84.96,"Mozilla/5.0 (Windows NT 10.0; Win64; x64) AppleWebKit/537.36 (KHTML, like Gecko) Chrome/125.0.0.0 Safari/537.36",WebKit,Chrome,125.0.0.0,Windows,10.0,https://app.prolific.com/,"en-US,en;q=0.9",7e9x0n,fc_IC_default_3_3.mp3,forced_choice,,,,,f,False,False,
119,6160.0,f,audio-keyboard-response,119,1564635,0.0-25.0-0.19,5,tonic G5,2024-05-31 10:18:57,ab8c78d7af27e364ce40308a28d3270a,209.35.84.96,"Mozilla/5.0 (Windows NT 10.0; Win64; x64) AppleWebKit/537.36 (KHTML, like Gecko) Chrome/125.0.0.0 Safari/537.36",WebKit,Chrome,125.0.0.0,Windows,10.0,https://app.prolific.com/,"en-US,en;q=0.9",7e9x0n,fc_accents_56_2.mp3,forced_choice,,,,j,,False,False,
120,5301.0,j,audio-keyboard-response,120,1569942,0.0-25.0-0.20,5,tonic G5,2024-05-31 10:18:57,ab8c78d7af27e364ce40308a28d3270a,209.35.84.96,"Mozilla/5.0 (Windows NT 10.0; Win64; x64) AppleWebKit/537.36 (KHTML, like Gecko) Chrome/125.0.0.0 Safari/537.36",WebKit,Chrome,125.0.0.0,Windows,10.0,https://app.prolific.com/,"en-US,en;q=0.9",7e9x0n,fc_accents_32_1.mp3,forced_choice,,,,j,,True,False,
121,7091.0,j,audio-keyboard-response,121,1577332,0.0-25.0-0.21,5,tonic G5,2024-05-31 10:18:57,ab8c78d7af27e364ce40308a28d3270a,209.35.84.96,"Mozilla/5.0 (Windows NT 10.0; Win64; x64) AppleWebKit/537.36 (KHTML, like Gecko) Chrome/125.0.0.0 Safari/537.36",WebKit,Chrome,125.0.0.0,Windows,10.0,https://app.prolific.com/,"en-US,en;q=0.9",7e9x0n,fc_IC_default_5_4.mp3,forced_choice,,,,,j,False,True,
122,5691.0,j,audio-keyboard-response,122,1583265,0.0-25.0-0.22,5,tonic G5,2024-05-31 10:18:57,ab8c78d7af27e364ce40308a28d3270a,209.35.84.96,"Mozilla/5.0 (Windows NT 10.0; Win64; x64) AppleWebKit/537.36 (KHTML, like Gecko) Chrome/125.0.0.0 Safari/537.36",WebKit,Chrome,125.0.0.0,Windows,10.0,https://app.prolific.com/,"en-US,en;q=0.9",7e9x0n,fc_IC_default_5_1.mp3,forced_choice,,,,,j,False,True,
123,5560.0,f,audio-keyboard-response,123,1589072,0.0-25.0-0.23,5,tonic G5,2024-05-31 10:18:57,ab8c78d7af27e364ce40308a28d3270a,209.35.84.96,"Mozilla/5.0 (Windows NT 10.0; Win64; x64) AppleWebKit/537.36 (KHTML, like Gecko) Chrome/125.0.0.0 Safari/537.36",WebKit,Chrome,125.0.0.0,Windows,10.0,https://app.prolific.com/,"en-US,en;q=0.9",7e9x0n,fc_IC_accent_5_3.mp3,forced_choice,,,,,j,False,False,
124,6371.0,f,audio-keyboard-response,124,1595673,0.0-25.0-0.24,5,tonic G5,2024-05-31 10:18:57,ab8c78d7af27e364ce40308a28d3270a,209.35.84.96,"Mozilla/5.0 (Windows NT 10.0; Win64; x64) AppleWebKit/537.36 (KHTML, like Gecko) Chrome/125.0.0.0 Safari/537.36",WebKit,Chrome,125.0.0.0,Windows,10.0,https://app.prolific.com/,"en-US,en;q=0.9",7e9x0n,fc_IC_accent_5_2.mp3,forced_choice,,,,,j,False,False,
125,5499.0,j,audio-keyboard-response,125,1601442,0.0-25.0-0.25,5,tonic G5,2024-05-31 10:18:57,ab8c78d7af27e364ce40308a28d3270a,209.35.84.96,"Mozilla/5.0 (Windows NT 10.0; Win64; x64) AppleWebKit/537.36 (KHTML, like Gecko) Chrome/125.0.0.0 Safari/537.36",WebKit,Chrome,125.0.0.0,Windows,10.0,https://app.prolific.com/,"en-US,en;q=0.9",7e9x0n,fc_IC_accent_3_1.mp3,forced_choice,,,,,f,False,False,
126,6509.0,j,audio-keyboard-response,126,1608194,0.0-25.0-0.26,5,tonic G5,2024-05-31 10:18:57,ab8c78d7af27e364ce40308a28d3270a,209.35.84.96,"Mozilla/5.0 (Windows NT 10.0; Win64; x64) AppleWebKit/537.36 (KHTML, like Gecko) Chrome/125.0.0.0 Safari/537.36",WebKit,Chrome,125.0.0.0,Windows,10.0,https://app.prolific.com/,"en-US,en;q=0.9",7e9x0n,fc_accents_32_2.mp3,forced_choice,,,,j,,True,False,
127,6808.0,f,audio-keyboard-response,127,1615276,0.0-25.0-0.27,5,tonic G5,2024-05-31 10:18:57,ab8c78d7af27e364ce40308a28d3270a,209.35.84.96,"Mozilla/5.0 (Windows NT 10.0; Win64; x64) AppleWebKit/537.36 (KHTML, like Gecko) Chrome/125.0.0.0 Safari/537.36",WebKit,Chrome,125.0.0.0,Windows,10.0,https://app.prolific.com/,"en-US,en;q=0.9",7e9x0n,fc_IC_default_5_3.mp3,forced_choice,,,,,j,False,False,
128,6819.0,f,audio-keyboard-response,128,1622371,0.0-25.0-0.28,5,tonic G5,2024-05-31 10:18:57,ab8c78d7af27e364ce40308a28d3270a,209.35.84.96,"Mozilla/5.0 (Windows NT 10.0; Win64; x64) AppleWebKit/537.36 (KHTML, like Gecko) Chrome/125.0.0.0 Safari/537.36",WebKit,Chrome,125.0.0.0,Windows,10.0,https://app.prolific.com/,"en-US,en;q=0.9",7e9x0n,fc_IC_default_3_4.mp3,forced_choice,,,,,f,False,True,
129,4760.0,j,audio-keyboard-response,129,1627390,0.0-25.0-0.29,5,tonic G5,2024-05-31 10:18:57,ab8c78d7af27e364ce40308a28d3270a,209.35.84.96,"Mozilla/5.0 (Windows NT 10.0; Win64; x64) AppleWebKit/537.36 (KHTML, like Gecko) Chrome/125.0.0.0 Safari/537.36",WebKit,Chrome,125.0.0.0,Windows,10.0,https://app.prolific.com/,"en-US,en;q=0.9",7e9x0n,fc_accents_56_1.mp3,forced_choice,,,,j,,True,False,
130,2771.0,f,audio-keyboard-response,130,1630429,0.0-25.0-0.30,5,tonic G5,2024-05-31 10:18:57,ab8c78d7af27e364ce40308a28d3270a,209.35.84.96,"Mozilla/5.0 (Windows NT 10.0; Win64; x64) AppleWebKit/537.36 (KHTML, like Gecko) Chrome/125.0.0.0 Safari/537.36",WebKit,Chrome,125.0.0.0,Windows,10.0,https://app.prolific.com/,"en-US,en;q=0.9",7e9x0n,fc_IC_accent_5_1.mp3,forced_choice,,,,,j,False,False,
131,5411.0,j,audio-keyboard-response,131,1636112,0.0-25.0-0.31,5,tonic G5,2024-05-31 10:18:57,ab8c78d7af27e364ce40308a28d3270a,209.35.84.96,"Mozilla/5.0 (Windows NT 10.0; Win64; x64) AppleWebKit/537.36 (KHTML, like Gecko) Chrome/125.0.0.0 Safari/537.36",WebKit,Chrome,125.0.0.0,Windows,10.0,https://app.prolific.com/,"en-US,en;q=0.9",7e9x0n,fc_accents_54_1.mp3,forced_choice,,,,j,,True,False,
132,3379.0, ,html-keyboard-response,132,1639493,0.0-26.0,5,tonic G5,2024-05-31 10:18:57,ab8c78d7af27e364ce40308a28d3270a,209.35.84.96,"Mozilla/5.0 (Windows NT 10.0; Win64; x64) AppleWebKit/537.36 (KHTML, like Gecko) Chrome/125.0.0.0 Safari/537.36",WebKit,Chrome,125.0.0.0,Windows,10.0,https://app.prolific.com/,"en-US,en;q=0.9",7e9x0n,"<p>You have completed all the listening in this experiment. The remaining questions about your background
          will help us better understand your responses. You can skip any question that you do not wish to answer. </p>
          <p> <b> Press the space bar to continue. </b></p>",,,,,,,,,
133,2744.0,"{""HeadphoneUse"":""No, I used computer speakers""}",survey-multi-choice,133,1642240,0.0-27.0,5,tonic G5,2024-05-31 10:18:57,ab8c78d7af27e364ce40308a28d3270a,209.35.84.96,"Mozilla/5.0 (Windows NT 10.0; Win64; x64) AppleWebKit/537.36 (KHTML, like Gecko) Chrome/125.0.0.0 Safari/537.36",WebKit,Chrome,125.0.0.0,Windows,10.0,https://app.prolific.com/,"en-US,en;q=0.9",7e9x0n,,survey,,,,,,,,[0]
134,69033.0,"{""age"":""12/7/90"",""country"":""United Kingdom"",""language"":""English""}",survey-html-form,134,1711275,0.0-28.0,5,tonic G5,2024-05-31 10:18:57,ab8c78d7af27e364ce40308a28d3270a,209.35.84.96,"Mozilla/5.0 (Windows NT 10.0; Win64; x64) AppleWebKit/537.36 (KHTML, like Gecko) Chrome/125.0.0.0 Safari/537.36",WebKit,Chrome,125.0.0.0,Windows,10.0,https://app.prolific.com/,"en-US,en;q=0.9",7e9x0n,,survey,,,,,,,,
135,1728.0,"{""Gender"":""Female""}",survey-multi-choice,135,1713007,0.0-29.0,5,tonic G5,2024-05-31 10:18:57,ab8c78d7af27e364ce40308a28d3270a,209.35.84.96,"Mozilla/5.0 (Windows NT 10.0; Win64; x64) AppleWebKit/537.36 (KHTML, like Gecko) Chrome/125.0.0.0 Safari/537.36",WebKit,Chrome,125.0.0.0,Windows,10.0,https://app.prolific.com/,"en-US,en;q=0.9",7e9x0n,,survey,,,,,,,,[0]
136,23065.0,"{""Colors"":[""Jazz"",""Country"",""Metal""]}",survey-multi-select,136,1736076,0.0-30.0,5,tonic G5,2024-05-31 10:18:57,ab8c78d7af27e364ce40308a28d3270a,209.35.84.96,"Mozilla/5.0 (Windows NT 10.0; Win64; x64) AppleWebKit/537.36 (KHTML, like Gecko) Chrome/125.0.0.0 Safari/537.36",WebKit,Chrome,125.0.0.0,Windows,10.0,https://app.prolific.com/,"en-US,en;q=0.9",7e9x0n,,,,,,,,,,[0]
137,7871.0,"{""HearingImpairment"":""No"",""PerfectPitch"":""No"",""Singing"":""I'm not sure""}",survey-multi-choice,137,1743951,0.0-31.0,5,tonic G5,2024-05-31 10:18:57,ab8c78d7af27e364ce40308a28d3270a,209.35.84.96,"Mozilla/5.0 (Windows NT 10.0; Win64; x64) AppleWebKit/537.36 (KHTML, like Gecko) Chrome/125.0.0.0 Safari/537.36",WebKit,Chrome,125.0.0.0,Windows,10.0,https://app.prolific.com/,"en-US,en;q=0.9",7e9x0n,,survey,,,,,,,,"[0,1,2]"
138,27001.0,"{""PracticeHours"":""30 minutes-1 hour"",""TrainingYears"":""1-4 years"",""TrainingType"":""I taught myself"",""Expertise"":""Intermediate"",""NonWesternTraining"":""No""}",survey-multi-choice,138,1770955,0.0-32.0,5,tonic G5,2024-05-31 10:18:57,ab8c78d7af27e364ce40308a28d3270a,209.35.84.96,"Mozilla/5.0 (Windows NT 10.0; Win64; x64) AppleWebKit/537.36 (KHTML, like Gecko) Chrome/125.0.0.0 Safari/537.36",WebKit,Chrome,125.0.0.0,Windows,10.0,https://app.prolific.com/,"en-US,en;q=0.9",7e9x0n,,survey,,,,,,,,"[0,1,2,3,4]"
139,4977.0,"{""TrainingStart"":""10-15""}",survey-multi-choice,139,1775935,0.0-33.0,5,tonic G5,2024-05-31 10:18:57,ab8c78d7af27e364ce40308a28d3270a,209.35.84.96,"Mozilla/5.0 (Windows NT 10.0; Win64; x64) AppleWebKit/537.36 (KHTML, like Gecko) Chrome/125.0.0.0 Safari/537.36",WebKit,Chrome,125.0.0.0,Windows,10.0,https://app.prolific.com/,"en-US,en;q=0.9",7e9x0n,,survey,,,,,,,,[0]
140,8881.0,0,html-button-response,140,1784819,0.0-34.0,5,tonic G5,2024-05-31 10:18:57,ab8c78d7af27e364ce40308a28d3270a,209.35.84.96,"Mozilla/5.0 (Windows NT 10.0; Win64; x64) AppleWebKit/537.36 (KHTML, like Gecko) Chrome/125.0.0.0 Safari/537.36",WebKit,Chrome,125.0.0.0,Windows,10.0,https://app.prolific.com/,"en-US,en;q=0.9",7e9x0n,"You have reached the end of the experiment. Your completion code is <b>C1AWH3EX</b>.
    <p>For questions or concerns, please write to <b>haiqin.zhang@ens.psl.eu.</b></p>
    Thank you for your participation!
  ",,,,,,,,,
141,32125.0,"{""prolific_id"":""65e5b5685f50d05622f50968""}",survey-html-form,0,32134,0.0-0.0,14,tonic G5,2024-05-31 11:17:46,ab8c78d7af27e364ce40308a28d3270a,86.6.249.219,Mozilla/5.0 (Windows NT 10.0; Win64; x64; rv:126.0) Gecko/20100101 Firefox/126.0,,Firefox,126.0,Windows,10.0,https://app.prolific.com/,"en-GB,en;q=0.5",vxv6m3,,,,,,,,,,
142,48432.0, ,html-keyboard-response,1,80569,0.0-1.0,14,tonic G5,2024-05-31 11:17:46,ab8c78d7af27e364ce40308a28d3270a,86.6.249.219,Mozilla/5.0 (Windows NT 10.0; Win64; x64; rv:126.0) Gecko/20100101 Firefox/126.0,,Firefox,126.0,Windows,10.0,https://app.prolific.com/,"en-GB,en;q=0.5",vxv6m3,"
    <p>Please complete the experiment in a quiet place.
      We highly recommend using headphones.</p>

    </p align = 'justify'> <b>Press the space bar to proceed.</b> </p>",,,,,,,,,
143,4399.0, ,html-keyboard-response,2,84975,0.0-2.0,14,tonic G5,2024-05-31 11:17:46,ab8c78d7af27e364ce40308a28d3270a,86.6.249.219,Mozilla/5.0 (Windows NT 10.0; Win64; x64; rv:126.0) Gecko/20100101 Firefox/126.0,,Firefox,126.0,Windows,10.0,https://app.prolific.com/,"en-GB,en;q=0.5",vxv6m3,"
    <p>A series of soundchecks will now be played to help you adjust the volume
      to a comfortable level. </p>

    </p align = 'justify'> <b>Press the space bar to proceed.</b> </p>",,,,,,,,,
144,8189.0,0,audio-button-response,3,93860,0.0-3.0-0.0,14,tonic G5,2024-05-31 11:17:46,ab8c78d7af27e364ce40308a28d3270a,86.6.249.219,Mozilla/5.0 (Windows NT 10.0; Win64; x64; rv:126.0) Gecko/20100101 Firefox/126.0,,Firefox,126.0,Windows,10.0,https://app.prolific.com/,"en-GB,en;q=0.5",vxv6m3,grammatical_1.mp3,,,,,,,,,
145,7381.0,1,audio-button-response,4,101242,0.0-3.1-0.1,14,tonic G5,2024-05-31 11:17:46,ab8c78d7af27e364ce40308a28d3270a,86.6.249.219,Mozilla/5.0 (Windows NT 10.0; Win64; x64; rv:126.0) Gecko/20100101 Firefox/126.0,,Firefox,126.0,Windows,10.0,https://app.prolific.com/,"en-GB,en;q=0.5",vxv6m3,grammatical_1.mp3,,,,,,,,,
146,50689.0, ,html-keyboard-response,5,151934,0.0-4.0,14,tonic G5,2024-05-31 11:17:46,ab8c78d7af27e364ce40308a28d3270a,86.6.249.219,Mozilla/5.0 (Windows NT 10.0; Win64; x64; rv:126.0) Gecko/20100101 Firefox/126.0,,Firefox,126.0,Windows,10.0,https://app.prolific.com/,"en-GB,en;q=0.5",vxv6m3,"<p width = 300 px>
    You will now hear two melodies in succession. 
    The notes in each melody are the same, but there is an accent on one note for one of the melodies. 
    <b>Listen for which melody has the accent.</b>
    </p>
    
    Press the space bar to continue.",,,,,,,,,
147,4861.0, ,html-keyboard-response,6,156797,0.0-5.0,14,tonic G5,2024-05-31 11:17:46,ab8c78d7af27e364ce40308a28d3270a,86.6.249.219,Mozilla/5.0 (Windows NT 10.0; Win64; x64; rv:126.0) Gecko/20100101 Firefox/126.0,,Firefox,126.0,Windows,10.0,https://app.prolific.com/,"en-GB,en;q=0.5",vxv6m3,"<p width = 300 px>
    <b>You must score at least 2/3 to proceed with the experiment.</b>
    </p>
    
    Press the space bar to continue.",,,,,,,,,
148,17008.0,1,audio-button-response,7,173931,0.0-6.0,14,tonic G5,2024-05-31 11:17:46,ab8c78d7af27e364ce40308a28d3270a,86.6.249.219,Mozilla/5.0 (Windows NT 10.0; Win64; x64; rv:126.0) Gecko/20100101 Firefox/126.0,,Firefox,126.0,Windows,10.0,https://app.prolific.com/,"en-GB,en;q=0.5",vxv6m3,fc_accents_32_1.mp3,soundcheck,True,,,,,,,
149,2912.0, ,html-keyboard-response,8,176844,0.0-7.0,14,tonic G5,2024-05-31 11:17:46,ab8c78d7af27e364ce40308a28d3270a,86.6.249.219,Mozilla/5.0 (Windows NT 10.0; Win64; x64; rv:126.0) Gecko/20100101 Firefox/126.0,,Firefox,126.0,Windows,10.0,https://app.prolific.com/,"en-GB,en;q=0.5",vxv6m3,<p>Correct!</p> Press the space bar to continue.,,,,,,,,,
150,11739.0,1,audio-button-response,9,188732,0.0-8.0,14,tonic G5,2024-05-31 11:17:46,ab8c78d7af27e364ce40308a28d3270a,86.6.249.219,Mozilla/5.0 (Windows NT 10.0; Win64; x64; rv:126.0) Gecko/20100101 Firefox/126.0,,Firefox,126.0,Windows,10.0,https://app.prolific.com/,"en-GB,en;q=0.5",vxv6m3,fc_accents_56_4.mp3,soundcheck,True,,,,,,,
151,2047.0, ,html-keyboard-response,10,190781,0.0-9.0,14,tonic G5,2024-05-31 11:17:46,ab8c78d7af27e364ce40308a28d3270a,86.6.249.219,Mozilla/5.0 (Windows NT 10.0; Win64; x64; rv:126.0) Gecko/20100101 Firefox/126.0,,Firefox,126.0,Windows,10.0,https://app.prolific.com/,"en-GB,en;q=0.5",vxv6m3,<p>Correct!</p> Press the space bar to continue.,,,,,,,,,
152,9269.0,1,audio-button-response,11,200173,0.0-10.0,14,tonic G5,2024-05-31 11:17:46,ab8c78d7af27e364ce40308a28d3270a,86.6.249.219,Mozilla/5.0 (Windows NT 10.0; Win64; x64; rv:126.0) Gecko/20100101 Firefox/126.0,,Firefox,126.0,Windows,10.0,https://app.prolific.com/,"en-GB,en;q=0.5",vxv6m3,fc_accents_54_4.mp3,soundcheck,True,,,,,,,
153,1911.0, ,html-keyboard-response,12,202084,0.0-11.0,14,tonic G5,2024-05-31 11:17:46,ab8c78d7af27e364ce40308a28d3270a,86.6.249.219,Mozilla/5.0 (Windows NT 10.0; Win64; x64; rv:126.0) Gecko/20100101 Firefox/126.0,,Firefox,126.0,Windows,10.0,https://app.prolific.com/,"en-GB,en;q=0.5",vxv6m3,<p>Correct!</p> Press the space bar to continue.,,,,,,,,,
154,7918.0, ,html-keyboard-response,13,210005,0.0-12.0,14,tonic G5,2024-05-31 11:17:46,ab8c78d7af27e364ce40308a28d3270a,86.6.249.219,Mozilla/5.0 (Windows NT 10.0; Win64; x64; rv:126.0) Gecko/20100101 Firefox/126.0,,Firefox,126.0,Windows,10.0,https://app.prolific.com/,"en-GB,en;q=0.5",vxv6m3,"If you got <b>less than 2/3</b> of the previous soundcheck questions correct, <b>we unfortunately cannot use your data or pay you</b>. Please exit the experiment now.
    
    <p>If you got <b>more than 2/3</b> correct, press the space bar to continue</p>.",,,,,,,,,
155,16128.0, ,html-keyboard-response,14,226133,0.0-13.0,14,tonic G5,2024-05-31 11:17:46,ab8c78d7af27e364ce40308a28d3270a,86.6.249.219,Mozilla/5.0 (Windows NT 10.0; Win64; x64; rv:126.0) Gecko/20100101 Firefox/126.0,,Firefox,126.0,Windows,10.0,https://app.prolific.com/,"en-GB,en;q=0.5",vxv6m3,"<p>Please listen carefully to the following set of melodies. 
      You will occassionally be asked some basic questions about some of the melodies to check your attention level. </p>
    <p><b>Press the space bar to continue.</b></p>",,,,,,,,,
156,7043.0, ,html-keyboard-response,15,233180,0.0-14.0,14,tonic G5,2024-05-31 11:17:46,ab8c78d7af27e364ce40308a28d3270a,86.6.249.219,Mozilla/5.0 (Windows NT 10.0; Win64; x64; rv:126.0) Gecko/20100101 Firefox/126.0,,Firefox,126.0,Windows,10.0,https://app.prolific.com/,"en-GB,en;q=0.5",vxv6m3,"<p>The attention questions vary in difficulty, but you must get at least some questions correct for us to pay you.</p>
    <p><b>Press the space bar to continue.</b></p>",,,,,,,,,
157,3007.0, ,html-keyboard-response,16,236188,0.0-15.0,14,tonic G5,2024-05-31 11:17:46,ab8c78d7af27e364ce40308a28d3270a,86.6.249.219,Mozilla/5.0 (Windows NT 10.0; Win64; x64; rv:126.0) Gecko/20100101 Firefox/126.0,,Firefox,126.0,Windows,10.0,https://app.prolific.com/,"en-GB,en;q=0.5",vxv6m3,"
    This part of the experiment should take <b>15-20 minutes</b>. 
    <p><b>Press the space bar to begin.</b></p>",,,,,,,,,
158,,,audio-keyboard-response,17,259440,0.0-16.0-0.0,14,tonic G5,2024-05-31 11:17:46,ab8c78d7af27e364ce40308a28d3270a,86.6.249.219,Mozilla/5.0 (Windows NT 10.0; Win64; x64; rv:126.0) Gecko/20100101 Firefox/126.0,,Firefox,126.0,Windows,10.0,https://app.prolific.com/,"en-GB,en;q=0.5",vxv6m3,"[""exposure_4s_18.mp3""]",exposure,,exp_noresponse,,,,,,
159,,,audio-keyboard-response,18,282702,0.0-16.0-1.0,14,tonic G5,2024-05-31 11:17:46,ab8c78d7af27e364ce40308a28d3270a,86.6.249.219,Mozilla/5.0 (Windows NT 10.0; Win64; x64; rv:126.0) Gecko/20100101 Firefox/126.0,,Firefox,126.0,Windows,10.0,https://app.prolific.com/,"en-GB,en;q=0.5",vxv6m3,"[""exposure_4s_25.mp3""]",exposure,,exp_noresponse,,,,,,
160,,,audio-keyboard-response,19,305928,0.0-16.0-2.0,14,tonic G5,2024-05-31 11:17:46,ab8c78d7af27e364ce40308a28d3270a,86.6.249.219,Mozilla/5.0 (Windows NT 10.0; Win64; x64; rv:126.0) Gecko/20100101 Firefox/126.0,,Firefox,126.0,Windows,10.0,https://app.prolific.com/,"en-GB,en;q=0.5",vxv6m3,"[""exposure_4s_26.mp3""]",exposure,,exp_noresponse,,,,,,
161,,,audio-keyboard-response,20,329151,0.0-16.0-3.0,14,tonic G5,2024-05-31 11:17:46,ab8c78d7af27e364ce40308a28d3270a,86.6.249.219,Mozilla/5.0 (Windows NT 10.0; Win64; x64; rv:126.0) Gecko/20100101 Firefox/126.0,,Firefox,126.0,Windows,10.0,https://app.prolific.com/,"en-GB,en;q=0.5",vxv6m3,"[""exposure_4s_21.mp3""]",exposure,,exp_noresponse,,,,,,
162,10829.0,1,audio-button-response,21,340132,0.0-16.0-4.0,14,tonic G5,2024-05-31 11:17:46,ab8c78d7af27e364ce40308a28d3270a,86.6.249.219,Mozilla/5.0 (Windows NT 10.0; Win64; x64; rv:126.0) Gecko/20100101 Firefox/126.0,,Firefox,126.0,Windows,10.0,https://app.prolific.com/,"en-GB,en;q=0.5",vxv6m3,attn_length_easy_1.mp3,exposure,True,attncheck,,,,,,
163,,,audio-keyboard-response,22,363324,0.0-16.0-5.0,14,tonic G5,2024-05-31 11:17:46,ab8c78d7af27e364ce40308a28d3270a,86.6.249.219,Mozilla/5.0 (Windows NT 10.0; Win64; x64; rv:126.0) Gecko/20100101 Firefox/126.0,,Firefox,126.0,Windows,10.0,https://app.prolific.com/,"en-GB,en;q=0.5",vxv6m3,"[""exposure_4s_42.mp3""]",exposure,,exp_noresponse,,,,,,
164,,,audio-keyboard-response,23,386507,0.0-16.0-6.0,14,tonic G5,2024-05-31 11:17:46,ab8c78d7af27e364ce40308a28d3270a,86.6.249.219,Mozilla/5.0 (Windows NT 10.0; Win64; x64; rv:126.0) Gecko/20100101 Firefox/126.0,,Firefox,126.0,Windows,10.0,https://app.prolific.com/,"en-GB,en;q=0.5",vxv6m3,"[""exposure_4s_44.mp3""]",exposure,,exp_noresponse,,,,,,
165,,,audio-keyboard-response,24,409730,0.0-16.0-7.0,14,tonic G5,2024-05-31 11:17:46,ab8c78d7af27e364ce40308a28d3270a,86.6.249.219,Mozilla/5.0 (Windows NT 10.0; Win64; x64; rv:126.0) Gecko/20100101 Firefox/126.0,,Firefox,126.0,Windows,10.0,https://app.prolific.com/,"en-GB,en;q=0.5",vxv6m3,"[""exposure_4s_39.mp3""]",exposure,,exp_noresponse,,,,,,
166,,,audio-keyboard-response,25,432737,0.0-16.0-8.0,14,tonic G5,2024-05-31 11:17:46,ab8c78d7af27e364ce40308a28d3270a,86.6.249.219,Mozilla/5.0 (Windows NT 10.0; Win64; x64; rv:126.0) Gecko/20100101 Firefox/126.0,,Firefox,126.0,Windows,10.0,https://app.prolific.com/,"en-GB,en;q=0.5",vxv6m3,"[""exposure_4s_21.mp3""]",exposure,,exp_noresponse,,,,,,
167,,,audio-keyboard-response,26,455940,0.0-16.0-9.0,14,tonic G5,2024-05-31 11:17:46,ab8c78d7af27e364ce40308a28d3270a,86.6.249.219,Mozilla/5.0 (Windows NT 10.0; Win64; x64; rv:126.0) Gecko/20100101 Firefox/126.0,,Firefox,126.0,Windows,10.0,https://app.prolific.com/,"en-GB,en;q=0.5",vxv6m3,"[""exposure_4s_30.mp3""]",exposure,,exp_noresponse,,,,,,
168,,,audio-keyboard-response,27,478949,0.0-16.0-10.0,14,tonic G5,2024-05-31 11:17:46,ab8c78d7af27e364ce40308a28d3270a,86.6.249.219,Mozilla/5.0 (Windows NT 10.0; Win64; x64; rv:126.0) Gecko/20100101 Firefox/126.0,,Firefox,126.0,Windows,10.0,https://app.prolific.com/,"en-GB,en;q=0.5",vxv6m3,"[""exposure_4s_18.mp3""]",exposure,,exp_noresponse,,,,,,
169,,,audio-keyboard-response,28,502170,0.0-16.0-11.0,14,tonic G5,2024-05-31 11:17:46,ab8c78d7af27e364ce40308a28d3270a,86.6.249.219,Mozilla/5.0 (Windows NT 10.0; Win64; x64; rv:126.0) Gecko/20100101 Firefox/126.0,,Firefox,126.0,Windows,10.0,https://app.prolific.com/,"en-GB,en;q=0.5",vxv6m3,"[""exposure_4s_37.mp3""]",exposure,,exp_noresponse,,,,,,
170,,,audio-keyboard-response,29,525385,0.0-16.0-12.0,14,tonic G5,2024-05-31 11:17:46,ab8c78d7af27e364ce40308a28d3270a,86.6.249.219,Mozilla/5.0 (Windows NT 10.0; Win64; x64; rv:126.0) Gecko/20100101 Firefox/126.0,,Firefox,126.0,Windows,10.0,https://app.prolific.com/,"en-GB,en;q=0.5",vxv6m3,"[""exposure_4s_22.mp3""]",exposure,,exp_noresponse,,,,,,
171,,,audio-keyboard-response,30,548613,0.0-16.0-13.0,14,tonic G5,2024-05-31 11:17:46,ab8c78d7af27e364ce40308a28d3270a,86.6.249.219,Mozilla/5.0 (Windows NT 10.0; Win64; x64; rv:126.0) Gecko/20100101 Firefox/126.0,,Firefox,126.0,Windows,10.0,https://app.prolific.com/,"en-GB,en;q=0.5",vxv6m3,"[""exposure_4s_16.mp3""]",exposure,,exp_noresponse,,,,,,
172,,,audio-keyboard-response,31,571622,0.0-16.0-14.0,14,tonic G5,2024-05-31 11:17:46,ab8c78d7af27e364ce40308a28d3270a,86.6.249.219,Mozilla/5.0 (Windows NT 10.0; Win64; x64; rv:126.0) Gecko/20100101 Firefox/126.0,,Firefox,126.0,Windows,10.0,https://app.prolific.com/,"en-GB,en;q=0.5",vxv6m3,"[""exposure_4s_25.mp3""]",exposure,,exp_noresponse,,,,,,
173,,,audio-keyboard-response,32,594848,0.0-16.0-15.0,14,tonic G5,2024-05-31 11:17:46,ab8c78d7af27e364ce40308a28d3270a,86.6.249.219,Mozilla/5.0 (Windows NT 10.0; Win64; x64; rv:126.0) Gecko/20100101 Firefox/126.0,,Firefox,126.0,Windows,10.0,https://app.prolific.com/,"en-GB,en;q=0.5",vxv6m3,"[""exposure_4s_23.mp3""]",exposure,,exp_noresponse,,,,,,
174,,,audio-keyboard-response,33,617869,0.0-16.0-16.0,14,tonic G5,2024-05-31 11:17:46,ab8c78d7af27e364ce40308a28d3270a,86.6.249.219,Mozilla/5.0 (Windows NT 10.0; Win64; x64; rv:126.0) Gecko/20100101 Firefox/126.0,,Firefox,126.0,Windows,10.0,https://app.prolific.com/,"en-GB,en;q=0.5",vxv6m3,"[""exposure_4s_39.mp3""]",exposure,,exp_noresponse,,,,,,
175,,,audio-keyboard-response,34,640889,0.0-16.0-17.0,14,tonic G5,2024-05-31 11:17:46,ab8c78d7af27e364ce40308a28d3270a,86.6.249.219,Mozilla/5.0 (Windows NT 10.0; Win64; x64; rv:126.0) Gecko/20100101 Firefox/126.0,,Firefox,126.0,Windows,10.0,https://app.prolific.com/,"en-GB,en;q=0.5",vxv6m3,"[""exposure_4s_44.mp3""]",exposure,,exp_noresponse,,,,,,
176,,,audio-keyboard-response,35,664289,0.0-16.0-18.0,14,tonic G5,2024-05-31 11:17:46,ab8c78d7af27e364ce40308a28d3270a,86.6.249.219,Mozilla/5.0 (Windows NT 10.0; Win64; x64; rv:126.0) Gecko/20100101 Firefox/126.0,,Firefox,126.0,Windows,10.0,https://app.prolific.com/,"en-GB,en;q=0.5",vxv6m3,"[""exposure_4s_29.mp3""]",exposure,,exp_noresponse,,,,,,
177,,,audio-keyboard-response,36,687296,0.0-16.0-19.0,14,tonic G5,2024-05-31 11:17:46,ab8c78d7af27e364ce40308a28d3270a,86.6.249.219,Mozilla/5.0 (Windows NT 10.0; Win64; x64; rv:126.0) Gecko/20100101 Firefox/126.0,,Firefox,126.0,Windows,10.0,https://app.prolific.com/,"en-GB,en;q=0.5",vxv6m3,"[""exposure_4s_18.mp3""]",exposure,,exp_noresponse,,,,,,
178,,,audio-keyboard-response,37,710312,0.0-16.0-20.0,14,tonic G5,2024-05-31 11:17:46,ab8c78d7af27e364ce40308a28d3270a,86.6.249.219,Mozilla/5.0 (Windows NT 10.0; Win64; x64; rv:126.0) Gecko/20100101 Firefox/126.0,,Firefox,126.0,Windows,10.0,https://app.prolific.com/,"en-GB,en;q=0.5",vxv6m3,"[""exposure_4s_37.mp3""]",exposure,,exp_noresponse,,,,,,
179,10029.0,1,audio-button-response,38,720347,0.0-16.0-21.0,14,tonic G5,2024-05-31 11:17:46,ab8c78d7af27e364ce40308a28d3270a,86.6.249.219,Mozilla/5.0 (Windows NT 10.0; Win64; x64; rv:126.0) Gecko/20100101 Firefox/126.0,,Firefox,126.0,Windows,10.0,https://app.prolific.com/,"en-GB,en;q=0.5",vxv6m3,attn_length_easy_1.mp3,exposure,True,attncheck,,,,,,
180,,,audio-keyboard-response,39,743549,0.0-16.0-22.0,14,tonic G5,2024-05-31 11:17:46,ab8c78d7af27e364ce40308a28d3270a,86.6.249.219,Mozilla/5.0 (Windows NT 10.0; Win64; x64; rv:126.0) Gecko/20100101 Firefox/126.0,,Firefox,126.0,Windows,10.0,https://app.prolific.com/,"en-GB,en;q=0.5",vxv6m3,"[""exposure_4s_11.mp3""]",exposure,,exp_noresponse,,,,,,
181,,,audio-keyboard-response,40,766741,0.0-16.0-23.0,14,tonic G5,2024-05-31 11:17:46,ab8c78d7af27e364ce40308a28d3270a,86.6.249.219,Mozilla/5.0 (Windows NT 10.0; Win64; x64; rv:126.0) Gecko/20100101 Firefox/126.0,,Firefox,126.0,Windows,10.0,https://app.prolific.com/,"en-GB,en;q=0.5",vxv6m3,"[""exposure_4s_12.mp3""]",exposure,,exp_noresponse,,,,,,
182,,,audio-keyboard-response,41,789748,0.0-16.0-24.0,14,tonic G5,2024-05-31 11:17:46,ab8c78d7af27e364ce40308a28d3270a,86.6.249.219,Mozilla/5.0 (Windows NT 10.0; Win64; x64; rv:126.0) Gecko/20100101 Firefox/126.0,,Firefox,126.0,Windows,10.0,https://app.prolific.com/,"en-GB,en;q=0.5",vxv6m3,"[""exposure_4s_23.mp3""]",exposure,,exp_noresponse,,,,,,
183,10280.0,1,audio-button-response,42,800026,0.0-16.0-25.0,14,tonic G5,2024-05-31 11:17:46,ab8c78d7af27e364ce40308a28d3270a,86.6.249.219,Mozilla/5.0 (Windows NT 10.0; Win64; x64; rv:126.0) Gecko/20100101 Firefox/126.0,,Firefox,126.0,Windows,10.0,https://app.prolific.com/,"en-GB,en;q=0.5",vxv6m3,attn_length_easy_1.mp3,exposure,True,attncheck,,,,,,
184,10851.0,1,audio-button-response,43,810871,0.0-16.0-26.0,14,tonic G5,2024-05-31 11:17:46,ab8c78d7af27e364ce40308a28d3270a,86.6.249.219,Mozilla/5.0 (Windows NT 10.0; Win64; x64; rv:126.0) Gecko/20100101 Firefox/126.0,,Firefox,126.0,Windows,10.0,https://app.prolific.com/,"en-GB,en;q=0.5",vxv6m3,attn_length_easy_1.mp3,exposure,True,attncheck,,,,,,
185,,,audio-keyboard-response,44,834075,0.0-16.0-27.0,14,tonic G5,2024-05-31 11:17:46,ab8c78d7af27e364ce40308a28d3270a,86.6.249.219,Mozilla/5.0 (Windows NT 10.0; Win64; x64; rv:126.0) Gecko/20100101 Firefox/126.0,,Firefox,126.0,Windows,10.0,https://app.prolific.com/,"en-GB,en;q=0.5",vxv6m3,"[""exposure_4s_20.mp3""]",exposure,,exp_noresponse,,,,,,
186,,,audio-keyboard-response,45,857093,0.0-16.0-28.0,14,tonic G5,2024-05-31 11:17:46,ab8c78d7af27e364ce40308a28d3270a,86.6.249.219,Mozilla/5.0 (Windows NT 10.0; Win64; x64; rv:126.0) Gecko/20100101 Firefox/126.0,,Firefox,126.0,Windows,10.0,https://app.prolific.com/,"en-GB,en;q=0.5",vxv6m3,"[""exposure_4s_30.mp3""]",exposure,,exp_noresponse,,,,,,
187,15971.0,1,audio-button-response,46,873218,0.0-16.0-29.0,14,tonic G5,2024-05-31 11:17:46,ab8c78d7af27e364ce40308a28d3270a,86.6.249.219,Mozilla/5.0 (Windows NT 10.0; Win64; x64; rv:126.0) Gecko/20100101 Firefox/126.0,,Firefox,126.0,Windows,10.0,https://app.prolific.com/,"en-GB,en;q=0.5",vxv6m3,attn_length_hard_1.mp3,exposure,True,attncheck,,,,,,
188,,,audio-keyboard-response,47,896825,0.0-16.0-30.0,14,tonic G5,2024-05-31 11:17:46,ab8c78d7af27e364ce40308a28d3270a,86.6.249.219,Mozilla/5.0 (Windows NT 10.0; Win64; x64; rv:126.0) Gecko/20100101 Firefox/126.0,,Firefox,126.0,Windows,10.0,https://app.prolific.com/,"en-GB,en;q=0.5",vxv6m3,"[""exposure_4s_10.mp3""]",exposure,,exp_noresponse,,,,,,
189,,,audio-keyboard-response,48,920048,0.0-16.0-31.0,14,tonic G5,2024-05-31 11:17:46,ab8c78d7af27e364ce40308a28d3270a,86.6.249.219,Mozilla/5.0 (Windows NT 10.0; Win64; x64; rv:126.0) Gecko/20100101 Firefox/126.0,,Firefox,126.0,Windows,10.0,https://app.prolific.com/,"en-GB,en;q=0.5",vxv6m3,"[""exposure_4s_14.mp3""]",exposure,,exp_noresponse,,,,,,
190,16272.0,1,audio-button-response,49,936318,0.0-16.0-32.0,14,tonic G5,2024-05-31 11:17:46,ab8c78d7af27e364ce40308a28d3270a,86.6.249.219,Mozilla/5.0 (Windows NT 10.0; Win64; x64; rv:126.0) Gecko/20100101 Firefox/126.0,,Firefox,126.0,Windows,10.0,https://app.prolific.com/,"en-GB,en;q=0.5",vxv6m3,attn_length_easy_1.mp3,exposure,True,attncheck,,,,,,
191,,,audio-keyboard-response,50,959526,0.0-16.0-33.0,14,tonic G5,2024-05-31 11:17:46,ab8c78d7af27e364ce40308a28d3270a,86.6.249.219,Mozilla/5.0 (Windows NT 10.0; Win64; x64; rv:126.0) Gecko/20100101 Firefox/126.0,,Firefox,126.0,Windows,10.0,https://app.prolific.com/,"en-GB,en;q=0.5",vxv6m3,"[""exposure_4s_8.mp3""]",exposure,,exp_noresponse,,,,,,
192,,,audio-keyboard-response,51,982737,0.0-16.0-34.0,14,tonic G5,2024-05-31 11:17:46,ab8c78d7af27e364ce40308a28d3270a,86.6.249.219,Mozilla/5.0 (Windows NT 10.0; Win64; x64; rv:126.0) Gecko/20100101 Firefox/126.0,,Firefox,126.0,Windows,10.0,https://app.prolific.com/,"en-GB,en;q=0.5",vxv6m3,"[""exposure_4s_36.mp3""]",exposure,,exp_noresponse,,,,,,
193,,,audio-keyboard-response,52,1005957,0.0-16.0-35.0,14,tonic G5,2024-05-31 11:17:46,ab8c78d7af27e364ce40308a28d3270a,86.6.249.219,Mozilla/5.0 (Windows NT 10.0; Win64; x64; rv:126.0) Gecko/20100101 Firefox/126.0,,Firefox,126.0,Windows,10.0,https://app.prolific.com/,"en-GB,en;q=0.5",vxv6m3,"[""exposure_4s_28.mp3""]",exposure,,exp_noresponse,,,,,,
194,,,audio-keyboard-response,53,1029777,0.0-16.0-36.0,14,tonic G5,2024-05-31 11:17:46,ab8c78d7af27e364ce40308a28d3270a,86.6.249.219,Mozilla/5.0 (Windows NT 10.0; Win64; x64; rv:126.0) Gecko/20100101 Firefox/126.0,,Firefox,126.0,Windows,10.0,https://app.prolific.com/,"en-GB,en;q=0.5",vxv6m3,"[""exposure_4s_44.mp3""]",exposure,,exp_noresponse,,,,,,
195,,,audio-keyboard-response,54,1052987,0.0-16.0-37.0,14,tonic G5,2024-05-31 11:17:46,ab8c78d7af27e364ce40308a28d3270a,86.6.249.219,Mozilla/5.0 (Windows NT 10.0; Win64; x64; rv:126.0) Gecko/20100101 Firefox/126.0,,Firefox,126.0,Windows,10.0,https://app.prolific.com/,"en-GB,en;q=0.5",vxv6m3,"[""exposure_4s_19.mp3""]",exposure,,exp_noresponse,,,,,,
196,,,audio-keyboard-response,55,1075997,0.0-16.0-38.0,14,tonic G5,2024-05-31 11:17:46,ab8c78d7af27e364ce40308a28d3270a,86.6.249.219,Mozilla/5.0 (Windows NT 10.0; Win64; x64; rv:126.0) Gecko/20100101 Firefox/126.0,,Firefox,126.0,Windows,10.0,https://app.prolific.com/,"en-GB,en;q=0.5",vxv6m3,"[""exposure_4s_44.mp3""]",exposure,,exp_noresponse,,,,,,
197,,,audio-keyboard-response,56,1099006,0.0-16.0-39.0,14,tonic G5,2024-05-31 11:17:46,ab8c78d7af27e364ce40308a28d3270a,86.6.249.219,Mozilla/5.0 (Windows NT 10.0; Win64; x64; rv:126.0) Gecko/20100101 Firefox/126.0,,Firefox,126.0,Windows,10.0,https://app.prolific.com/,"en-GB,en;q=0.5",vxv6m3,"[""exposure_4s_29.mp3""]",exposure,,exp_noresponse,,,,,,
198,10661.0,1,audio-button-response,57,1109669,0.0-16.0-40.0,14,tonic G5,2024-05-31 11:17:46,ab8c78d7af27e364ce40308a28d3270a,86.6.249.219,Mozilla/5.0 (Windows NT 10.0; Win64; x64; rv:126.0) Gecko/20100101 Firefox/126.0,,Firefox,126.0,Windows,10.0,https://app.prolific.com/,"en-GB,en;q=0.5",vxv6m3,attn_length_easy_1.mp3,exposure,True,attncheck,,,,,,
199,,,audio-keyboard-response,58,1132677,0.0-16.0-41.0,14,tonic G5,2024-05-31 11:17:46,ab8c78d7af27e364ce40308a28d3270a,86.6.249.219,Mozilla/5.0 (Windows NT 10.0; Win64; x64; rv:126.0) Gecko/20100101 Firefox/126.0,,Firefox,126.0,Windows,10.0,https://app.prolific.com/,"en-GB,en;q=0.5",vxv6m3,"[""exposure_4s_8.mp3""]",exposure,,exp_noresponse,,,,,,
200,,,audio-keyboard-response,59,1155872,0.0-16.0-42.0,14,tonic G5,2024-05-31 11:17:46,ab8c78d7af27e364ce40308a28d3270a,86.6.249.219,Mozilla/5.0 (Windows NT 10.0; Win64; x64; rv:126.0) Gecko/20100101 Firefox/126.0,,Firefox,126.0,Windows,10.0,https://app.prolific.com/,"en-GB,en;q=0.5",vxv6m3,"[""exposure_4s_27.mp3""]",exposure,,exp_noresponse,,,,,,
201,9869.0,1,audio-button-response,60,1165739,0.0-16.0-43.0,14,tonic G5,2024-05-31 11:17:46,ab8c78d7af27e364ce40308a28d3270a,86.6.249.219,Mozilla/5.0 (Windows NT 10.0; Win64; x64; rv:126.0) Gecko/20100101 Firefox/126.0,,Firefox,126.0,Windows,10.0,https://app.prolific.com/,"en-GB,en;q=0.5",vxv6m3,attn_length_easy_1.mp3,exposure,True,attncheck,,,,,,
202,,,audio-keyboard-response,61,1188746,0.0-16.0-44.0,14,tonic G5,2024-05-31 11:17:46,ab8c78d7af27e364ce40308a28d3270a,86.6.249.219,Mozilla/5.0 (Windows NT 10.0; Win64; x64; rv:126.0) Gecko/20100101 Firefox/126.0,,Firefox,126.0,Windows,10.0,https://app.prolific.com/,"en-GB,en;q=0.5",vxv6m3,"[""exposure_4s_20.mp3""]",exposure,,exp_noresponse,,,,,,
203,,,audio-keyboard-response,62,1211756,0.0-16.0-45.0,14,tonic G5,2024-05-31 11:17:46,ab8c78d7af27e364ce40308a28d3270a,86.6.249.219,Mozilla/5.0 (Windows NT 10.0; Win64; x64; rv:126.0) Gecko/20100101 Firefox/126.0,,Firefox,126.0,Windows,10.0,https://app.prolific.com/,"en-GB,en;q=0.5",vxv6m3,"[""exposure_4s_27.mp3""]",exposure,,exp_noresponse,,,,,,
204,,,audio-keyboard-response,63,1234776,0.0-16.0-46.0,14,tonic G5,2024-05-31 11:17:46,ab8c78d7af27e364ce40308a28d3270a,86.6.249.219,Mozilla/5.0 (Windows NT 10.0; Win64; x64; rv:126.0) Gecko/20100101 Firefox/126.0,,Firefox,126.0,Windows,10.0,https://app.prolific.com/,"en-GB,en;q=0.5",vxv6m3,"[""exposure_4s_27.mp3""]",exposure,,exp_noresponse,,,,,,
205,,,audio-keyboard-response,64,1257996,0.0-16.0-47.0,14,tonic G5,2024-05-31 11:17:46,ab8c78d7af27e364ce40308a28d3270a,86.6.249.219,Mozilla/5.0 (Windows NT 10.0; Win64; x64; rv:126.0) Gecko/20100101 Firefox/126.0,,Firefox,126.0,Windows,10.0,https://app.prolific.com/,"en-GB,en;q=0.5",vxv6m3,"[""exposure_4s_6.mp3""]",exposure,,exp_noresponse,,,,,,
206,28109.0,1,audio-button-response,65,1286247,0.0-16.0-48.0,14,tonic G5,2024-05-31 11:17:46,ab8c78d7af27e364ce40308a28d3270a,86.6.249.219,Mozilla/5.0 (Windows NT 10.0; Win64; x64; rv:126.0) Gecko/20100101 Firefox/126.0,,Firefox,126.0,Windows,10.0,https://app.prolific.com/,"en-GB,en;q=0.5",vxv6m3,attn_length_int_1.mp3,exposure,True,attncheck,,,,,,
207,,,audio-keyboard-response,66,1309446,0.0-16.0-49.0,14,tonic G5,2024-05-31 11:17:46,ab8c78d7af27e364ce40308a28d3270a,86.6.249.219,Mozilla/5.0 (Windows NT 10.0; Win64; x64; rv:126.0) Gecko/20100101 Firefox/126.0,,Firefox,126.0,Windows,10.0,https://app.prolific.com/,"en-GB,en;q=0.5",vxv6m3,"[""exposure_4s_5.mp3""]",exposure,,exp_noresponse,,,,,,
208,,,audio-keyboard-response,67,1332665,0.0-16.0-50.0,14,tonic G5,2024-05-31 11:17:46,ab8c78d7af27e364ce40308a28d3270a,86.6.249.219,Mozilla/5.0 (Windows NT 10.0; Win64; x64; rv:126.0) Gecko/20100101 Firefox/126.0,,Firefox,126.0,Windows,10.0,https://app.prolific.com/,"en-GB,en;q=0.5",vxv6m3,"[""exposure_4s_32.mp3""]",exposure,,exp_noresponse,,,,,,
209,,,audio-keyboard-response,68,1355685,0.0-16.0-51.0,14,tonic G5,2024-05-31 11:17:46,ab8c78d7af27e364ce40308a28d3270a,86.6.249.219,Mozilla/5.0 (Windows NT 10.0; Win64; x64; rv:126.0) Gecko/20100101 Firefox/126.0,,Firefox,126.0,Windows,10.0,https://app.prolific.com/,"en-GB,en;q=0.5",vxv6m3,"[""exposure_4s_10.mp3""]",exposure,,exp_noresponse,,,,,,
210,,,audio-keyboard-response,69,1378705,0.0-16.0-52.0,14,tonic G5,2024-05-31 11:17:46,ab8c78d7af27e364ce40308a28d3270a,86.6.249.219,Mozilla/5.0 (Windows NT 10.0; Win64; x64; rv:126.0) Gecko/20100101 Firefox/126.0,,Firefox,126.0,Windows,10.0,https://app.prolific.com/,"en-GB,en;q=0.5",vxv6m3,"[""exposure_4s_25.mp3""]",exposure,,exp_noresponse,,,,,,
211,,,audio-keyboard-response,70,1401925,0.0-16.0-53.0,14,tonic G5,2024-05-31 11:17:46,ab8c78d7af27e364ce40308a28d3270a,86.6.249.219,Mozilla/5.0 (Windows NT 10.0; Win64; x64; rv:126.0) Gecko/20100101 Firefox/126.0,,Firefox,126.0,Windows,10.0,https://app.prolific.com/,"en-GB,en;q=0.5",vxv6m3,"[""exposure_4s_41.mp3""]",exposure,,exp_noresponse,,,,,,
212,35501.0,5,audio-slider-response,71,1437538,0.0-16.0-54.0,14,tonic G5,2024-05-31 11:17:46,ab8c78d7af27e364ce40308a28d3270a,86.6.249.219,Mozilla/5.0 (Windows NT 10.0; Win64; x64; rv:126.0) Gecko/20100101 Firefox/126.0,,Firefox,126.0,Windows,10.0,https://app.prolific.com/,"en-GB,en;q=0.5",vxv6m3,"[""grammatical_7.mp3""]",exposure,,exp_liking,4.0,,,,,
213,,,audio-keyboard-response,72,1460744,0.0-16.0-55.0,14,tonic G5,2024-05-31 11:17:46,ab8c78d7af27e364ce40308a28d3270a,86.6.249.219,Mozilla/5.0 (Windows NT 10.0; Win64; x64; rv:126.0) Gecko/20100101 Firefox/126.0,,Firefox,126.0,Windows,10.0,https://app.prolific.com/,"en-GB,en;q=0.5",vxv6m3,"[""exposure_4s_38.mp3""]",exposure,,exp_noresponse,,,,,,
214,,,audio-keyboard-response,73,1483765,0.0-16.0-56.0,14,tonic G5,2024-05-31 11:17:46,ab8c78d7af27e364ce40308a28d3270a,86.6.249.219,Mozilla/5.0 (Windows NT 10.0; Win64; x64; rv:126.0) Gecko/20100101 Firefox/126.0,,Firefox,126.0,Windows,10.0,https://app.prolific.com/,"en-GB,en;q=0.5",vxv6m3,"[""exposure_4s_14.mp3""]",exposure,,exp_noresponse,,,,,,
215,14331.0,1,audio-button-response,74,1498088,0.0-16.0-57.0,14,tonic G5,2024-05-31 11:17:46,ab8c78d7af27e364ce40308a28d3270a,86.6.249.219,Mozilla/5.0 (Windows NT 10.0; Win64; x64; rv:126.0) Gecko/20100101 Firefox/126.0,,Firefox,126.0,Windows,10.0,https://app.prolific.com/,"en-GB,en;q=0.5",vxv6m3,attn_length_hard_1.mp3,exposure,True,attncheck,,,,,,
216,,,audio-keyboard-response,75,1521285,0.0-16.0-58.0,14,tonic G5,2024-05-31 11:17:46,ab8c78d7af27e364ce40308a28d3270a,86.6.249.219,Mozilla/5.0 (Windows NT 10.0; Win64; x64; rv:126.0) Gecko/20100101 Firefox/126.0,,Firefox,126.0,Windows,10.0,https://app.prolific.com/,"en-GB,en;q=0.5",vxv6m3,"[""exposure_4s_2.mp3""]",exposure,,exp_noresponse,,,,,,
217,13371.0,1,audio-button-response,76,1534653,0.0-16.0-59.0,14,tonic G5,2024-05-31 11:17:46,ab8c78d7af27e364ce40308a28d3270a,86.6.249.219,Mozilla/5.0 (Windows NT 10.0; Win64; x64; rv:126.0) Gecko/20100101 Firefox/126.0,,Firefox,126.0,Windows,10.0,https://app.prolific.com/,"en-GB,en;q=0.5",vxv6m3,attn_length_hard_1.mp3,exposure,True,attncheck,,,,,,
218,9614.0, ,html-keyboard-response,77,1544270,0.0-17.0,14,tonic G5,2024-05-31 11:17:46,ab8c78d7af27e364ce40308a28d3270a,86.6.249.219,Mozilla/5.0 (Windows NT 10.0; Win64; x64; rv:126.0) Gecko/20100101 Firefox/126.0,,Firefox,126.0,Windows,10.0,https://app.prolific.com/,"en-GB,en;q=0.5",vxv6m3,"<p>You will now be asked to judge how similar some melodies are to what you have
    just listened to. </p>
    <p><b>Press the space bar to continue.</b></p>",,,,,,,,,
219,5196.0, ,html-keyboard-response,78,1549470,0.0-18.0,14,tonic G5,2024-05-31 11:17:46,ab8c78d7af27e364ce40308a28d3270a,86.6.249.219,Mozilla/5.0 (Windows NT 10.0; Win64; x64; rv:126.0) Gecko/20100101 Firefox/126.0,,Firefox,126.0,Windows,10.0,https://app.prolific.com/,"en-GB,en;q=0.5",vxv6m3,"<p>The changes in the melodies are subtle. If you are not sure, go with your gut feeling.</p>
    <p><b>Press the space bar to continue.</b></p>",,,,,,,,,
220,16152.0,7,audio-slider-response,79,1565748,0.0-19.0-0.0,14,tonic G5,2024-05-31 11:17:46,ab8c78d7af27e364ce40308a28d3270a,86.6.249.219,Mozilla/5.0 (Windows NT 10.0; Win64; x64; rv:126.0) Gecko/20100101 Firefox/126.0,,Firefox,126.0,Windows,10.0,https://app.prolific.com/,"en-GB,en;q=0.5",vxv6m3,grammatical_5.mp3,grammar_learning,,,4.0,,,,,
221,12131.0,6,audio-slider-response,80,1577980,0.0-19.0-0.1,14,tonic G5,2024-05-31 11:17:46,ab8c78d7af27e364ce40308a28d3270a,86.6.249.219,Mozilla/5.0 (Windows NT 10.0; Win64; x64; rv:126.0) Gecko/20100101 Firefox/126.0,,Firefox,126.0,Windows,10.0,https://app.prolific.com/,"en-GB,en;q=0.5",vxv6m3,grammatical_2.mp3,grammar_learning,,,4.0,,,,,
222,8112.0,7,audio-slider-response,81,1586195,0.0-19.0-0.2,14,tonic G5,2024-05-31 11:17:46,ab8c78d7af27e364ce40308a28d3270a,86.6.249.219,Mozilla/5.0 (Windows NT 10.0; Win64; x64; rv:126.0) Gecko/20100101 Firefox/126.0,,Firefox,126.0,Windows,10.0,https://app.prolific.com/,"en-GB,en;q=0.5",vxv6m3,grammatical_6.mp3,grammar_learning,,,4.0,,,,,
223,13200.0,3,audio-slider-response,82,1599494,0.0-19.0-0.3,14,tonic G5,2024-05-31 11:17:46,ab8c78d7af27e364ce40308a28d3270a,86.6.249.219,Mozilla/5.0 (Windows NT 10.0; Win64; x64; rv:126.0) Gecko/20100101 Firefox/126.0,,Firefox,126.0,Windows,10.0,https://app.prolific.com/,"en-GB,en;q=0.5",vxv6m3,agrammatical_7.mp3,grammar_learning,,,4.0,,,,,
224,10200.0,7,audio-slider-response,83,1609788,0.0-19.0-0.4,14,tonic G5,2024-05-31 11:17:46,ab8c78d7af27e364ce40308a28d3270a,86.6.249.219,Mozilla/5.0 (Windows NT 10.0; Win64; x64; rv:126.0) Gecko/20100101 Firefox/126.0,,Firefox,126.0,Windows,10.0,https://app.prolific.com/,"en-GB,en;q=0.5",vxv6m3,grammatical_3.mp3,grammar_learning,,,4.0,,,,,
225,8349.0,1,audio-slider-response,84,1618238,0.0-19.0-0.5,14,tonic G5,2024-05-31 11:17:46,ab8c78d7af27e364ce40308a28d3270a,86.6.249.219,Mozilla/5.0 (Windows NT 10.0; Win64; x64; rv:126.0) Gecko/20100101 Firefox/126.0,,Firefox,126.0,Windows,10.0,https://app.prolific.com/,"en-GB,en;q=0.5",vxv6m3,agrammatical_1.mp3,grammar_learning,,,4.0,,,,,
226,16739.0,2,audio-slider-response,85,1635088,0.0-19.0-0.6,14,tonic G5,2024-05-31 11:17:46,ab8c78d7af27e364ce40308a28d3270a,86.6.249.219,Mozilla/5.0 (Windows NT 10.0; Win64; x64; rv:126.0) Gecko/20100101 Firefox/126.0,,Firefox,126.0,Windows,10.0,https://app.prolific.com/,"en-GB,en;q=0.5",vxv6m3,agrammatical_4.mp3,grammar_learning,,,4.0,,,,,
227,15661.0,6,audio-slider-response,86,1650749,0.0-19.0-0.7,14,tonic G5,2024-05-31 11:17:46,ab8c78d7af27e364ce40308a28d3270a,86.6.249.219,Mozilla/5.0 (Windows NT 10.0; Win64; x64; rv:126.0) Gecko/20100101 Firefox/126.0,,Firefox,126.0,Windows,10.0,https://app.prolific.com/,"en-GB,en;q=0.5",vxv6m3,grammatical_7.mp3,grammar_learning,,,4.0,,,,,
228,12589.0,2,audio-slider-response,87,1663439,0.0-19.0-0.8,14,tonic G5,2024-05-31 11:17:46,ab8c78d7af27e364ce40308a28d3270a,86.6.249.219,Mozilla/5.0 (Windows NT 10.0; Win64; x64; rv:126.0) Gecko/20100101 Firefox/126.0,,Firefox,126.0,Windows,10.0,https://app.prolific.com/,"en-GB,en;q=0.5",vxv6m3,agrammatical_8.mp3,grammar_learning,,,4.0,,,,,
229,8981.0,6,audio-slider-response,88,1672540,0.0-19.0-0.9,14,tonic G5,2024-05-31 11:17:46,ab8c78d7af27e364ce40308a28d3270a,86.6.249.219,Mozilla/5.0 (Windows NT 10.0; Win64; x64; rv:126.0) Gecko/20100101 Firefox/126.0,,Firefox,126.0,Windows,10.0,https://app.prolific.com/,"en-GB,en;q=0.5",vxv6m3,grammatical_4.mp3,grammar_learning,,,4.0,,,,,
230,15280.0,3,audio-slider-response,89,1687923,0.0-19.0-0.10,14,tonic G5,2024-05-31 11:17:46,ab8c78d7af27e364ce40308a28d3270a,86.6.249.219,Mozilla/5.0 (Windows NT 10.0; Win64; x64; rv:126.0) Gecko/20100101 Firefox/126.0,,Firefox,126.0,Windows,10.0,https://app.prolific.com/,"en-GB,en;q=0.5",vxv6m3,agrammatical_6.mp3,grammar_learning,,,4.0,,,,,
231,7939.0,7,audio-slider-response,90,1695960,0.0-19.0-0.11,14,tonic G5,2024-05-31 11:17:46,ab8c78d7af27e364ce40308a28d3270a,86.6.249.219,Mozilla/5.0 (Windows NT 10.0; Win64; x64; rv:126.0) Gecko/20100101 Firefox/126.0,,Firefox,126.0,Windows,10.0,https://app.prolific.com/,"en-GB,en;q=0.5",vxv6m3,grammatical_8.mp3,grammar_learning,,,4.0,,,,,
232,8891.0,2,audio-slider-response,91,1704947,0.0-19.0-0.12,14,tonic G5,2024-05-31 11:17:46,ab8c78d7af27e364ce40308a28d3270a,86.6.249.219,Mozilla/5.0 (Windows NT 10.0; Win64; x64; rv:126.0) Gecko/20100101 Firefox/126.0,,Firefox,126.0,Windows,10.0,https://app.prolific.com/,"en-GB,en;q=0.5",vxv6m3,agrammatical_2.mp3,grammar_learning,,,4.0,,,,,
233,8440.0,3,audio-slider-response,92,1713500,0.0-19.0-0.13,14,tonic G5,2024-05-31 11:17:46,ab8c78d7af27e364ce40308a28d3270a,86.6.249.219,Mozilla/5.0 (Windows NT 10.0; Win64; x64; rv:126.0) Gecko/20100101 Firefox/126.0,,Firefox,126.0,Windows,10.0,https://app.prolific.com/,"en-GB,en;q=0.5",vxv6m3,agrammatical_3.mp3,grammar_learning,,,4.0,,,,,
234,7781.0,3,audio-slider-response,93,1721386,0.0-19.0-0.14,14,tonic G5,2024-05-31 11:17:46,ab8c78d7af27e364ce40308a28d3270a,86.6.249.219,Mozilla/5.0 (Windows NT 10.0; Win64; x64; rv:126.0) Gecko/20100101 Firefox/126.0,,Firefox,126.0,Windows,10.0,https://app.prolific.com/,"en-GB,en;q=0.5",vxv6m3,agrammatical_5.mp3,grammar_learning,,,4.0,,,,,
235,9109.0,6,audio-slider-response,94,1730490,0.0-19.0-0.15,14,tonic G5,2024-05-31 11:17:46,ab8c78d7af27e364ce40308a28d3270a,86.6.249.219,Mozilla/5.0 (Windows NT 10.0; Win64; x64; rv:126.0) Gecko/20100101 Firefox/126.0,,Firefox,126.0,Windows,10.0,https://app.prolific.com/,"en-GB,en;q=0.5",vxv6m3,grammatical_1.mp3,grammar_learning,,,4.0,,,,,
236,90704.0,"{""prolific_id"":""finger tapping/swaying to the melodies""}",survey-html-form,95,1821198,0.0-20.0,14,tonic G5,2024-05-31 11:17:46,ab8c78d7af27e364ce40308a28d3270a,86.6.249.219,Mozilla/5.0 (Windows NT 10.0; Win64; x64; rv:126.0) Gecko/20100101 Firefox/126.0,,Firefox,126.0,Windows,10.0,https://app.prolific.com/,"en-GB,en;q=0.5",vxv6m3,,,,,,,,,,
237,3740.0, ,html-keyboard-response,96,1824941,0.0-21.0,14,tonic G5,2024-05-31 11:17:46,ab8c78d7af27e364ce40308a28d3270a,86.6.249.219,Mozilla/5.0 (Windows NT 10.0; Win64; x64; rv:126.0) Gecko/20100101 Firefox/126.0,,Firefox,126.0,Windows,10.0,https://app.prolific.com/,"en-GB,en;q=0.5",vxv6m3,"<p>In this part of the experiment, you will presented with two melodies in succession. 
    <p><b>Press the space bar to continue.</b></p>",,,,,,,,,
238,11916.0, ,html-keyboard-response,97,1836862,0.0-22.0,14,tonic G5,2024-05-31 11:17:46,ab8c78d7af27e364ce40308a28d3270a,86.6.249.219,Mozilla/5.0 (Windows NT 10.0; Win64; x64; rv:126.0) Gecko/20100101 Firefox/126.0,,Firefox,126.0,Windows,10.0,https://app.prolific.com/,"en-GB,en;q=0.5",vxv6m3,"<p>The melodies are nearly identical, but have either an added accent or one different note. </p>
    <p><b>Press the space bar to continue.</b></p>",,,,,,,,,
239,5577.0, ,html-keyboard-response,98,1842444,0.0-23.0,14,tonic G5,2024-05-31 11:17:46,ab8c78d7af27e364ce40308a28d3270a,86.6.249.219,Mozilla/5.0 (Windows NT 10.0; Win64; x64; rv:126.0) Gecko/20100101 Firefox/126.0,,Firefox,126.0,Windows,10.0,https://app.prolific.com/,"en-GB,en;q=0.5",vxv6m3,"<p>    Please choose the melody that <b>sounds better to you.</b></p>
    <p><b>Press the space bar to continue.</b></p>",,,,,,,,,
240,11196.0, ,html-keyboard-response,99,1853644,0.0-24.0,14,tonic G5,2024-05-31 11:17:46,ab8c78d7af27e364ce40308a28d3270a,86.6.249.219,Mozilla/5.0 (Windows NT 10.0; Win64; x64; rv:126.0) Gecko/20100101 Firefox/126.0,,Firefox,126.0,Windows,10.0,https://app.prolific.com/,"en-GB,en;q=0.5",vxv6m3,There are <b>32 questions</b> in this section.,,,,,,,,,
241,8621.0,f,audio-keyboard-response,100,1862421,0.0-25.0-0.0,14,tonic G5,2024-05-31 11:17:46,ab8c78d7af27e364ce40308a28d3270a,86.6.249.219,Mozilla/5.0 (Windows NT 10.0; Win64; x64; rv:126.0) Gecko/20100101 Firefox/126.0,,Firefox,126.0,Windows,10.0,https://app.prolific.com/,"en-GB,en;q=0.5",vxv6m3,fc_IC_default_3_4.mp3,forced_choice,,,,,f,False,True,
242,9571.0,f,audio-keyboard-response,101,1871997,0.0-25.0-0.1,14,tonic G5,2024-05-31 11:17:46,ab8c78d7af27e364ce40308a28d3270a,86.6.249.219,Mozilla/5.0 (Windows NT 10.0; Win64; x64; rv:126.0) Gecko/20100101 Firefox/126.0,,Firefox,126.0,Windows,10.0,https://app.prolific.com/,"en-GB,en;q=0.5",vxv6m3,fc_accents_54_4.mp3,forced_choice,,,,j,,False,False,
243,7291.0,f,audio-keyboard-response,102,1879453,0.0-25.0-0.2,14,tonic G5,2024-05-31 11:17:46,ab8c78d7af27e364ce40308a28d3270a,86.6.249.219,Mozilla/5.0 (Windows NT 10.0; Win64; x64; rv:126.0) Gecko/20100101 Firefox/126.0,,Firefox,126.0,Windows,10.0,https://app.prolific.com/,"en-GB,en;q=0.5",vxv6m3,fc_accents_56_2.mp3,forced_choice,,,,j,,False,False,
244,9880.0,j,audio-keyboard-response,103,1889476,0.0-25.0-0.3,14,tonic G5,2024-05-31 11:17:46,ab8c78d7af27e364ce40308a28d3270a,86.6.249.219,Mozilla/5.0 (Windows NT 10.0; Win64; x64; rv:126.0) Gecko/20100101 Firefox/126.0,,Firefox,126.0,Windows,10.0,https://app.prolific.com/,"en-GB,en;q=0.5",vxv6m3,fc_IC_default_5_2.mp3,forced_choice,,,,,j,False,True,
245,9859.0,f,audio-keyboard-response,104,1899485,0.0-25.0-0.4,14,tonic G5,2024-05-31 11:17:46,ab8c78d7af27e364ce40308a28d3270a,86.6.249.219,Mozilla/5.0 (Windows NT 10.0; Win64; x64; rv:126.0) Gecko/20100101 Firefox/126.0,,Firefox,126.0,Windows,10.0,https://app.prolific.com/,"en-GB,en;q=0.5",vxv6m3,fc_IC_accent_5_4.mp3,forced_choice,,,,,j,False,False,
246,17869.0,j,audio-keyboard-response,105,1917525,0.0-25.0-0.5,14,tonic G5,2024-05-31 11:17:46,ab8c78d7af27e364ce40308a28d3270a,86.6.249.219,Mozilla/5.0 (Windows NT 10.0; Win64; x64; rv:126.0) Gecko/20100101 Firefox/126.0,,Firefox,126.0,Windows,10.0,https://app.prolific.com/,"en-GB,en;q=0.5",vxv6m3,fc_IC_default_5_4.mp3,forced_choice,,,,,j,False,True,
247,7008.0,f,audio-keyboard-response,106,1924676,0.0-25.0-0.6,14,tonic G5,2024-05-31 11:17:46,ab8c78d7af27e364ce40308a28d3270a,86.6.249.219,Mozilla/5.0 (Windows NT 10.0; Win64; x64; rv:126.0) Gecko/20100101 Firefox/126.0,,Firefox,126.0,Windows,10.0,https://app.prolific.com/,"en-GB,en;q=0.5",vxv6m3,fc_accents_32_2.mp3,forced_choice,,,,j,,False,False,
248,6760.0,f,audio-keyboard-response,107,1931588,0.0-25.0-0.7,14,tonic G5,2024-05-31 11:17:46,ab8c78d7af27e364ce40308a28d3270a,86.6.249.219,Mozilla/5.0 (Windows NT 10.0; Win64; x64; rv:126.0) Gecko/20100101 Firefox/126.0,,Firefox,126.0,Windows,10.0,https://app.prolific.com/,"en-GB,en;q=0.5",vxv6m3,fc_IC_accent_3_4.mp3,forced_choice,,,,,f,False,True,
249,6451.0,f,audio-keyboard-response,108,1938172,0.0-25.0-0.8,14,tonic G5,2024-05-31 11:17:46,ab8c78d7af27e364ce40308a28d3270a,86.6.249.219,Mozilla/5.0 (Windows NT 10.0; Win64; x64; rv:126.0) Gecko/20100101 Firefox/126.0,,Firefox,126.0,Windows,10.0,https://app.prolific.com/,"en-GB,en;q=0.5",vxv6m3,fc_accents_54_2.mp3,forced_choice,,,,j,,False,False,
250,6299.0,f,audio-keyboard-response,109,1944612,0.0-25.0-0.9,14,tonic G5,2024-05-31 11:17:46,ab8c78d7af27e364ce40308a28d3270a,86.6.249.219,Mozilla/5.0 (Windows NT 10.0; Win64; x64; rv:126.0) Gecko/20100101 Firefox/126.0,,Firefox,126.0,Windows,10.0,https://app.prolific.com/,"en-GB,en;q=0.5",vxv6m3,fc_accents_56_3.mp3,forced_choice,,,,j,,False,False,
251,5539.0,f,audio-keyboard-response,110,1950292,0.0-25.0-0.10,14,tonic G5,2024-05-31 11:17:46,ab8c78d7af27e364ce40308a28d3270a,86.6.249.219,Mozilla/5.0 (Windows NT 10.0; Win64; x64; rv:126.0) Gecko/20100101 Firefox/126.0,,Firefox,126.0,Windows,10.0,https://app.prolific.com/,"en-GB,en;q=0.5",vxv6m3,fc_accents_56_1.mp3,forced_choice,,,,j,,False,False,
252,22589.0,j,audio-keyboard-response,111,1973045,0.0-25.0-0.11,14,tonic G5,2024-05-31 11:17:46,ab8c78d7af27e364ce40308a28d3270a,86.6.249.219,Mozilla/5.0 (Windows NT 10.0; Win64; x64; rv:126.0) Gecko/20100101 Firefox/126.0,,Firefox,126.0,Windows,10.0,https://app.prolific.com/,"en-GB,en;q=0.5",vxv6m3,fc_IC_default_3_2.mp3,forced_choice,,,,,f,False,False,
253,7179.0,f,audio-keyboard-response,112,1980355,0.0-25.0-0.12,14,tonic G5,2024-05-31 11:17:46,ab8c78d7af27e364ce40308a28d3270a,86.6.249.219,Mozilla/5.0 (Windows NT 10.0; Win64; x64; rv:126.0) Gecko/20100101 Firefox/126.0,,Firefox,126.0,Windows,10.0,https://app.prolific.com/,"en-GB,en;q=0.5",vxv6m3,fc_IC_accent_3_1.mp3,forced_choice,,,,,f,False,True,
254,7331.0,f,audio-keyboard-response,113,1987836,0.0-25.0-0.13,14,tonic G5,2024-05-31 11:17:46,ab8c78d7af27e364ce40308a28d3270a,86.6.249.219,Mozilla/5.0 (Windows NT 10.0; Win64; x64; rv:126.0) Gecko/20100101 Firefox/126.0,,Firefox,126.0,Windows,10.0,https://app.prolific.com/,"en-GB,en;q=0.5",vxv6m3,fc_IC_accent_5_1.mp3,forced_choice,,,,,j,False,False,
255,7099.0,f,audio-keyboard-response,114,1995084,0.0-25.0-0.14,14,tonic G5,2024-05-31 11:17:46,ab8c78d7af27e364ce40308a28d3270a,86.6.249.219,Mozilla/5.0 (Windows NT 10.0; Win64; x64; rv:126.0) Gecko/20100101 Firefox/126.0,,Firefox,126.0,Windows,10.0,https://app.prolific.com/,"en-GB,en;q=0.5",vxv6m3,fc_accents_32_4.mp3,forced_choice,,,,j,,False,False,
256,5819.0,f,audio-keyboard-response,115,2001044,0.0-25.0-0.15,14,tonic G5,2024-05-31 11:17:46,ab8c78d7af27e364ce40308a28d3270a,86.6.249.219,Mozilla/5.0 (Windows NT 10.0; Win64; x64; rv:126.0) Gecko/20100101 Firefox/126.0,,Firefox,126.0,Windows,10.0,https://app.prolific.com/,"en-GB,en;q=0.5",vxv6m3,fc_IC_accent_5_3.mp3,forced_choice,,,,,j,False,False,
257,6552.0,f,audio-keyboard-response,116,2007596,0.0-25.0-0.16,14,tonic G5,2024-05-31 11:17:46,ab8c78d7af27e364ce40308a28d3270a,86.6.249.219,Mozilla/5.0 (Windows NT 10.0; Win64; x64; rv:126.0) Gecko/20100101 Firefox/126.0,,Firefox,126.0,Windows,10.0,https://app.prolific.com/,"en-GB,en;q=0.5",vxv6m3,fc_accents_56_4.mp3,forced_choice,,,,j,,False,False,
